trials.thisRepN,trials.thisTrialN,trials.thisN,trials.thisIndex,num_distr,fixation.started,target.started,mouse.started,mouse.x,mouse.y,mouse.leftButton,mouse.midButton,mouse.rightButton,mouse.time,mouse.clicked_name,participant,session,date,expName,psychopyVersion,frameRate
0,0,0,0,5,34.9278757,34.9278757,0.0277921,[-0.32592592592592595],[-0.10740740740740741],[1],[0],[0],[1.4374072999926284],['target'],9962,1,2022-09-27_18h52.29.674,T5,2022.2.3,60.19360671
1,0,1,0,5,36.3645083,36.3645083,0.0157562,[0.030555555555555555],[-0.375],[1],[0],[0],[1.3421430999878794],['target'],9962,1,2022-09-27_18h52.29.674,T5,2022.2.3,60.19360671
2,0,2,0,10,37.7388449,37.7388449,0.0264142,[0.08055555555555556],[-0.47314814814814815],[1],[0],[0],[2.2832016000174917],['target'],9962,1,2022-09-27_18h52.29.674,T5,2022.2.3,60.19360671
3,0,3,0,10,40.0552344,40.0552344,0.0288453,[0.007407407407407408],[0.26666666666666666],[1],[0],[0],[1.2161732999957167],['target'],9962,1,2022-09-27_18h52.29.674,T5,2022.2.3,60.19360671
4,0,4,0,5,41.2882311,41.2882311,0.0130447,[0.2712962962962963],[0.47129629629629627],[1],[0],[0],[1.2313185999519192],['target'],9962,1,2022-09-27_18h52.29.674,T5,2022.2.3,60.19360671
5,0,5,0,10,42.5475867,42.5475867,0.0259544,[0.14537037037037037],[0.4083333333333333],[1],[0],[0],[1.3035355000174604],['target'],9962,1,2022-09-27_18h52.29.674,T5,2022.2.3,60.19360671
6,0,6,0,10,43.8786456,43.8786456,0.0239525,[0.05648148148148148],[-0.06666666666666667],[1],[0],[0],[1.60494499997003],['target'],9962,1,2022-09-27_18h52.29.674,T5,2022.2.3,60.19360671
7,0,7,0,10,45.5146542,45.5146542,0.02412,[0.4462962962962963],[0.3638888888888889],[1],[0],[0],[1.3371854000142775],['target'],9962,1,2022-09-27_18h52.29.674,T5,2022.2.3,60.19360671
8,0,8,0,5,46.8690863,46.8690863,0.0144278,[0.01574074074074074],[-0.32314814814814813],[1],[0],[0],[1.1976225999533199],['target'],9962,1,2022-09-27_18h52.29.674,T5,2022.2.3,60.19360671
9,0,9,0,5,48.0892015,48.0892015,0.0183626,[0.11296296296296296],[0.5],[1],[0],[0],[1.675108099996578],['target'],9962,1,2022-09-27_18h52.29.674,T5,2022.2.3,60.19360671
10,0,10,0,10,49.7966238,49.7966238,0.0248515,[-0.27037037037037037],[0.2611111111111111],[1],[0],[0],[1.2840474999975413],['target'],9962,1,2022-09-27_18h52.29.674,T5,2022.2.3,60.19360671
11,0,11,0,5,51.0932698,51.0932698,0.0118022,[-0.49444444444444446],[-0.337037037037037],[1],[0],[0],[1.7173237999668345],['target'],9962,1,2022-09-27_18h52.29.674,T5,2022.2.3,60.19360671
12,0,12,0,10,52.8444699,52.8444699,0.0220715,[-0.38425925925925924],[-0.41944444444444445],[1],[0],[0],[1.550426299974788],['target'],9962,1,2022-09-27_18h52.29.674,T5,2022.2.3,60.19360671
13,0,13,0,5,54.4125981,54.4125981,0.0143346,[0.26666666666666666],[-0.3351851851851852],[1],[0],[0],[1.295788299990818],['target'],9962,1,2022-09-27_18h52.29.674,T5,2022.2.3,60.19360671
14,0,14,0,5,55.7278279,55.7278279,0.0148652,[-0.19907407407407407],[0.4212962962962963],[1],[0],[0],[1.3644393000286072],['target'],9962,1,2022-09-27_18h52.29.674,T5,2022.2.3,60.19360671
15,0,15,0,5,57.1161312,57.1161312,0.0184739,[0.4046296296296296],[-0.14166666666666666],[1],[0],[0],[1.190098899998702],['target'],9962,1,2022-09-27_18h52.29.674,T5,2022.2.3,60.19360671
16,0,16,0,10,58.3355952,58.3355952,0.0227492,[-0.3962962962962963],[0.19814814814814816],[1],[0],[0],[2.3881759999785572],['target'],9962,1,2022-09-27_18h52.29.674,T5,2022.2.3,60.19360671
17,0,17,0,10,60.7442369,60.7442369,0.0184306,[-0.13518518518518519],[0.009259259259259259],[1],[0],[0],[1.8120560999959707],[],9962,1,2022-09-27_18h52.29.674,T5,2022.2.3,60.19360671
18,0,18,0,5,62.5774057,62.5774057,0.0172523,[-0.03333333333333333],[-0.2574074074074074],[1],[0],[0],[0.9249604000360705],[],9962,1,2022-09-27_18h52.29.674,T5,2022.2.3,60.19360671
19,0,19,0,5,63.5222167,63.5222167,0.015962,[0.05925925925925926],[-0.3851851851851852],[1],[0],[0],[1.045299299992621],[],9962,1,2022-09-27_18h52.29.674,T5,2022.2.3,60.19360671
20,0,20,0,5,64.5870239,64.5870239,0.0122221,[0.40185185185185185],[0.08333333333333333],[1],[0],[0],[1.2634296999895014],['target'],9962,1,2022-09-27_18h52.29.674,T5,2022.2.3,60.19360671
21,0,21,0,10,65.8778382,65.8778382,0.0218826,[-0.38796296296296295],[0.05925925925925926],[1],[0],[0],[1.0385765000246465],['target'],9962,1,2022-09-27_18h52.29.674,T5,2022.2.3,60.19360671
22,0,22,0,5,66.9325677,66.9325677,0.0126676,[0.14166666666666666],[0.07777777777777778],[1],[0],[0],[0.9998175999498926],['target'],9962,1,2022-09-27_18h52.29.674,T5,2022.2.3,60.19360671
23,0,23,0,10,67.9667621,67.9667621,0.0297003,[0.32592592592592595],[-0.20185185185185187],[1],[0],[0],[0.9982211999595165],['target'],9962,1,2022-09-27_18h52.29.674,T5,2022.2.3,60.19360671
24,0,24,0,5,68.9790932,68.9790932,0.0132648,[-0.36574074074074076],[-0.22037037037037038],[1],[0],[0],[1.116569600009825],['target'],9962,1,2022-09-27_18h52.29.674,T5,2022.2.3,60.19360671
25,0,25,0,5,70.1152787,70.1152787,0.0133776,[-0.25],[0.24259259259259258],[1],[0],[0],[0.9982416999991983],['target'],9962,1,2022-09-27_18h52.29.674,T5,2022.2.3,60.19360671
26,0,26,0,10,71.1474995,71.1474995,0.0281981,[-0.48703703703703705],[0.17314814814814813],[1],[0],[0],[1.6485007000155747],['target'],9962,1,2022-09-27_18h52.29.674,T5,2022.2.3,60.19360671
27,0,27,0,10,72.8280133,72.8280133,0.0290752,[0.4935185185185185],[0.23981481481481481],[1],[0],[0],[1.1336547000100836],['target'],9962,1,2022-09-27_18h52.29.674,T5,2022.2.3,60.19360671
28,0,28,0,10,73.9948564,73.9948564,0.0290169,[-0.2759259259259259],[0.4222222222222222],[1],[0],[0],[2.164062099996954],['target'],9962,1,2022-09-27_18h52.29.674,T5,2022.2.3,60.19360671
29,0,29,0,5,76.1765749,76.1765749,0.0134541,[0.37962962962962965],[-0.3611111111111111],[1],[0],[0],[1.4169504000456072],['target'],9962,1,2022-09-27_18h52.29.674,T5,2022.2.3,60.19360671
30,0,30,0,5,77.6236102,77.6236102,0.0227721,[-0.18611111111111112],[-0.40370370370370373],[1],[0],[0],[1.466850200027693],['target'],9962,1,2022-09-27_18h52.29.674,T5,2022.2.3,60.19360671
31,0,31,0,5,79.1112814,79.1112814,0.0151908,[-0.275],[0.35462962962962963],[1],[0],[0],[1.109905700024683],['target'],9962,1,2022-09-27_18h52.29.674,T5,2022.2.3,60.19360671
32,0,32,0,10,80.2488616,80.2488616,0.022784,[0.23425925925925925],[-0.062037037037037036],[1],[0],[0],[1.1893360000103712],['target'],9962,1,2022-09-27_18h52.29.674,T5,2022.2.3,60.19360671
33,0,33,0,5,81.4562977,81.4562977,0.0145063,[0.32407407407407407],[-0.2611111111111111],[1],[0],[0],[1.7626217000070028],['target'],9962,1,2022-09-27_18h52.29.674,T5,2022.2.3,60.19360671
34,0,34,0,5,83.2394589,83.2394589,0.0169352,[0.33240740740740743],[0.1925925925925926],[1],[0],[0],[1.2940815999754705],['target'],9962,1,2022-09-27_18h52.29.674,T5,2022.2.3,60.19360671
35,0,35,0,10,84.5644885,84.5644885,0.026224,[0.45092592592592595],[0.387037037037037],[1],[0],[0],[1.2203253000043333],['target'],9962,1,2022-09-27_18h52.29.674,T5,2022.2.3,60.19360671
36,0,36,0,10,85.8157286,85.8157286,0.0244095,[0.1824074074074074],[-0.14074074074074075],[1],[0],[0],[1.2703553999890573],['target'],9962,1,2022-09-27_18h52.29.674,T5,2022.2.3,60.19360671
37,0,37,0,10,87.1130284,87.1130284,0.0240718,[-0.15925925925925927],[-0.33425925925925926],[1],[0],[0],[1.1210887000197545],['target'],9962,1,2022-09-27_18h52.29.674,T5,2022.2.3,60.19360671
38,0,38,0,10,88.2805356,88.2805356,0.0360385,[-0.4638888888888889],[0.4185185185185185],[1],[0],[0],[1.5379813999752514],['target'],9962,1,2022-09-27_18h52.29.674,T5,2022.2.3,60.19360671
39,0,39,0,5,89.8318913,89.8318913,0.0147006,[0.11851851851851852],[0.23333333333333334],[1],[0],[0],[1.3971415999694727],['target'],9962,1,2022-09-27_18h52.29.674,T5,2022.2.3,60.19360671
40,0,40,0,10,91.2732957,91.2732957,0.0334164,[-0.4675925925925926],[-0.2064814814814815],[1],[0],[0],[1.3065337999723852],['target'],9962,1,2022-09-27_18h52.29.674,T5,2022.2.3,60.19360671
41,0,41,0,5,92.6122688,92.6122688,0.024689,[-0.24074074074074073],[0.4027777777777778],[1],[0],[0],[1.0685052000335418],['target'],9962,1,2022-09-27_18h52.29.674,T5,2022.2.3,60.19360671
42,0,42,0,10,93.7093756,93.7093756,0.026217,[-0.29814814814814816],[0.004629629629629629],[1],[0],[0],[0.9532717999536544],['target'],9962,1,2022-09-27_18h52.29.674,T5,2022.2.3,60.19360671
43,0,43,0,5,94.6776461,94.6776461,0.0159709,[-0.14444444444444443],[0.17222222222222222],[1],[0],[0],[1.180378400022164],['target'],9962,1,2022-09-27_18h52.29.674,T5,2022.2.3,60.19360671
44,0,44,0,10,95.902952,95.902952,0.0358313,[-0.32407407407407407],[-0.075],[1],[0],[0],[1.276248999987729],['target'],9962,1,2022-09-27_18h52.29.674,T5,2022.2.3,60.19360671
45,0,45,0,10,97.2209368,97.2209368,0.0418857,[-0.2],[-0.48518518518518516],[1],[0],[0],[6.881619599997066],['target'],9962,1,2022-09-27_18h52.29.674,T5,2022.2.3,60.19360671
46,0,46,0,5,104.1202269,104.1202269,0.0150754,[0.42777777777777776],[0.32685185185185184],[1],[0],[0],[1.7638645999832079],['target'],9962,1,2022-09-27_18h52.29.674,T5,2022.2.3,60.19360671
47,0,47,0,5,105.9049498,105.9049498,0.0170788,[0.4101851851851852],[-0.35833333333333334],[1],[0],[0],[1.0605895000044256],['target'],9962,1,2022-09-27_18h52.29.674,T5,2022.2.3,60.19360671
48,0,48,0,5,106.9806035,106.9806035,0.0126447,[0.26851851851851855],[-0.14351851851851852],[1],[0],[0],[0.9007973999832757],['target'],9962,1,2022-09-27_18h52.29.674,T5,2022.2.3,60.19360671
49,0,49,0,10,107.9127086,107.9127086,0.025609,[-0.31666666666666665],[0.18703703703703703],[1],[0],[0],[1.453336299979128],['target'],9962,1,2022-09-27_18h52.29.674,T5,2022.2.3,60.19360671
50,0,50,0,10,109.4002155,109.4002155,0.0313142,[-0.044444444444444446],[-0.32685185185185184],[1],[0],[0],[1.1309094000025652],['target'],9962,1,2022-09-27_18h52.29.674,T5,2022.2.3,60.19360671
51,0,51,0,10,110.5593147,110.5593147,0.0242167,[-0.20185185185185187],[-0.49537037037037035],[1],[0],[0],[1.2541132000042126],['target'],9962,1,2022-09-27_18h52.29.674,T5,2022.2.3,60.19360671
52,0,52,0,10,111.8429788,111.8429788,0.0240628,[-0.16666666666666666],[0.2537037037037037],[1],[0],[0],[1.0874223000137135],['target'],9962,1,2022-09-27_18h52.29.674,T5,2022.2.3,60.19360671
53,0,53,0,10,112.9574759,112.9574759,0.0249224,[0.44074074074074077],[0.3287037037037037],[1],[0],[0],[0.9374039000249468],['target'],9962,1,2022-09-27_18h52.29.674,T5,2022.2.3,60.19360671
54,0,54,0,10,113.9233241,113.9233241,0.0239558,[-0.43148148148148147],[-0.09166666666666666],[1],[0],[0],[1.2380527000059374],['target'],9962,1,2022-09-27_18h52.29.674,T5,2022.2.3,60.19360671
55,0,55,0,5,115.1756686,115.1756686,0.0137451,[0.14444444444444443],[-0.32685185185185184],[1],[0],[0],[1.4302629999583587],['target'],9962,1,2022-09-27_18h52.29.674,T5,2022.2.3,60.19360671
56,0,56,0,5,116.6248673,116.6248673,0.0138292,[0.475],[0.22037037037037038],[1],[0],[0],[1.2470434000133537],['target'],9962,1,2022-09-27_18h52.29.674,T5,2022.2.3,60.19360671
57,0,57,0,5,117.8864601,117.8864601,0.011619,[0.44074074074074077],[0.3592592592592593],[1],[0],[0],[1.1180722000426613],['target'],9962,1,2022-09-27_18h52.29.674,T5,2022.2.3,60.19360671
58,0,58,0,5,119.0232191,119.0232191,0.0147364,[0.3148148148148148],[-0.18425925925925926],[1],[0],[0],[1.0144883000175469],['target'],9962,1,2022-09-27_18h52.29.674,T5,2022.2.3,60.19360671
59,0,59,0,10,120.0657229,120.0657229,0.0216361,[-0.22407407407407406],[0.15648148148148147],[1],[0],[0],[1.5911042999941856],['target'],9962,1,2022-09-27_18h52.29.674,T5,2022.2.3,60.19360671
60,0,60,0,5,121.6729099,121.6729099,0.0147002,[-0.13148148148148148],[-0.16111111111111112],[1],[0],[0],[0.8983088000095449],['target'],9962,1,2022-09-27_18h52.29.674,T5,2022.2.3,60.19360671
61,0,61,0,5,122.5927295,122.5927295,0.017389,[-0.10277777777777777],[-0.07314814814814814],[1],[0],[0],[0.7589905000058934],['target'],9962,1,2022-09-27_18h52.29.674,T5,2022.2.3,60.19360671
62,0,62,0,5,123.3708443,123.3708443,0.0139842,[-0.24537037037037038],[-0.28425925925925927],[1],[0],[0],[0.8642333999741822],['target'],9962,1,2022-09-27_18h52.29.674,T5,2022.2.3,60.19360671
63,0,63,0,5,124.2560367,124.2560367,0.0158965,[0.013888888888888888],[-0.3101851851851852],[1],[0],[0],[1.0292193000204861],['target'],9962,1,2022-09-27_18h52.29.674,T5,2022.2.3,60.19360671
64,0,64,0,5,125.2972184,125.2972184,0.010203,[-0.08518518518518518],[0.4027777777777778],[1],[0],[0],[1.3020543999737129],['target'],9962,1,2022-09-27_18h52.29.674,T5,2022.2.3,60.19360671
65,0,65,0,10,126.6300666,126.6300666,0.0215313,[-0.2759259259259259],[0.5],[1],[0],[0],[1.4876127000316046],['target'],9962,1,2022-09-27_18h52.29.674,T5,2022.2.3,60.19360671
66,0,66,0,5,128.1308179,128.1308179,0.0117412,[-0.4583333333333333],[-0.34074074074074073],[1],[0],[0],[1.098873500013724],['target'],9962,1,2022-09-27_18h52.29.674,T5,2022.2.3,60.19360671
67,0,67,0,10,129.2612831,129.2612831,0.0243813,[0.08981481481481482],[-0.014814814814814815],[1],[0],[0],[1.0054258000454865],['target'],9962,1,2022-09-27_18h52.29.674,T5,2022.2.3,60.19360671
68,0,68,0,5,130.2823465,130.2823465,0.0127956,[-0.3416666666666667],[-0.4027777777777778],[1],[0],[0],[0.9136359000112861],['target'],9962,1,2022-09-27_18h52.29.674,T5,2022.2.3,60.19360671
69,0,69,0,10,131.2298094,131.2298094,0.0244149,[0.19166666666666668],[0.27314814814814814],[1],[0],[0],[1.1684754000161774],['target'],9962,1,2022-09-27_18h52.29.674,T5,2022.2.3,60.19360671
70,0,70,0,5,132.4120156,132.4120156,0.0134572,[0.362962962962963],[-0.4083333333333333],[1],[0],[0],[1.3826628000242636],['target'],9962,1,2022-09-27_18h52.29.674,T5,2022.2.3,60.19360671
71,0,71,0,10,133.8281518,133.8281518,0.0248415,[0.3416666666666667],[0.24722222222222223],[1],[0],[0],[1.1858981000259519],['target'],9962,1,2022-09-27_18h52.29.674,T5,2022.2.3,60.19360671
72,0,72,0,5,135.0272362,135.0272362,0.0117879,[0.3351851851851852],[-0.425],[1],[0],[0],[1.1137974999728613],['target'],9962,1,2022-09-27_18h52.29.674,T5,2022.2.3,60.19360671
73,0,73,0,10,136.1886204,136.1886204,0.033635,[-0.18703703703703703],[0.18611111111111112],[1],[0],[0],[1.0105912999715656],['target'],9962,1,2022-09-27_18h52.29.674,T5,2022.2.3,60.19360671
74,0,74,0,5,137.2265233,137.2265233,0.0260608,[-0.5064814814814815],[0.01574074074074074],[1],[0],[0],[0.865049900021404],[],9962,1,2022-09-27_18h52.29.674,T5,2022.2.3,60.19360671
75,0,75,0,5,138.1236781,138.1236781,0.0257804,[0.06944444444444445],[0.48703703703703705],[1],[0],[0],[1.166212399955839],['target'],9962,1,2022-09-27_18h52.29.674,T5,2022.2.3,60.19360671
76,0,76,0,5,139.3053018,139.3053018,0.0105837,[0.4351851851851852],[-0.1388888888888889],[1],[0],[0],[0.9189933000016026],['target'],9962,1,2022-09-27_18h52.29.674,T5,2022.2.3,60.19360671
77,0,77,0,10,140.2510301,140.2510301,0.0251002,[0.30185185185185187],[0.28888888888888886],[1],[0],[0],[0.9215304999961518],['target'],9962,1,2022-09-27_18h52.29.674,T5,2022.2.3,60.19360671
78,0,78,0,5,141.1876342,141.1876342,0.011149,[0.2851851851851852],[-0.3175925925925926],[1],[0],[0],[0.833450099977199],[],9962,1,2022-09-27_18h52.29.674,T5,2022.2.3,60.19360671
79,0,79,0,10,142.0434361,142.0434361,0.0180963,[-0.44351851851851853],[0.14907407407407408],[1],[0],[0],[1.04472020000685],['target'],9962,1,2022-09-27_18h52.29.674,T5,2022.2.3,60.19360671
80,0,80,0,10,143.1158743,143.1158743,0.0229594,[0.03148148148148148],[0.11944444444444445],[1],[0],[0],[0.8895766999921761],['target'],9962,1,2022-09-27_18h52.29.674,T5,2022.2.3,60.19360671
81,0,81,0,10,144.0339735,144.0339735,0.0258545,[0.16944444444444445],[0.34814814814814815],[1],[0],[0],[1.0355678999912925],['target'],9962,1,2022-09-27_18h52.29.674,T5,2022.2.3,60.19360671
82,0,82,0,5,145.0798583,145.0798583,0.0102218,[-0.010185185185185186],[-0.4564814814814815],[1],[0],[0],[0.9193305999506265],['target'],9962,1,2022-09-27_18h52.29.674,T5,2022.2.3,60.19360671
83,0,83,0,10,146.0302246,146.0302246,0.0230276,[-0.4777777777777778],[-0.43333333333333335],[1],[0],[0],[1.6397904999903403],[],9962,1,2022-09-27_18h52.29.674,T5,2022.2.3,60.19360671
84,0,84,0,5,147.679888,147.679888,0.0103797,[-0.12037037037037036],[-0.23796296296296296],[1],[0],[0],[1.2004032999975607],[],9962,1,2022-09-27_18h52.29.674,T5,2022.2.3,60.19360671
85,0,85,0,10,148.9083681,148.9083681,0.0200711,[0.19537037037037036],[0.1537037037037037],[1],[0],[0],[0.8746454000356607],['target'],9962,1,2022-09-27_18h52.29.674,T5,2022.2.3,60.19360671
86,0,86,0,5,149.7925701,149.7925701,0.0095285,[0.32407407407407407],[-0.275],[1],[0],[0],[1.453459499985911],['target'],9962,1,2022-09-27_18h52.29.674,T5,2022.2.3,60.19360671
87,0,87,0,5,151.2700958,151.2700958,0.0150453,[0.30925925925925923],[-0.45740740740740743],[1],[0],[0],[1.0280315999989398],['target'],9962,1,2022-09-27_18h52.29.674,T5,2022.2.3,60.19360671
88,0,88,0,10,152.3257596,152.3257596,0.0232921,[0.07037037037037037],[-0.012037037037037037],[1],[0],[0],[1.0883618000079878],['target'],9962,1,2022-09-27_18h52.29.674,T5,2022.2.3,60.19360671
89,0,89,0,10,153.4395372,153.4395372,0.0224264,[-0.10092592592592593],[0.04814814814814815],[1],[0],[0],[1.388033399998676],['target'],9962,1,2022-09-27_18h52.29.674,T5,2022.2.3,60.19360671
90,0,90,0,10,154.8495667,154.8495667,0.0193828,[0.032407407407407406],[-0.18425925925925926],[1],[0],[0],[0.9770270999870263],['target'],9962,1,2022-09-27_18h52.29.674,T5,2022.2.3,60.19360671
91,0,91,0,10,155.8529717,155.8529717,0.0204254,[0.45740740740740743],[0.08611111111111111],[1],[0],[0],[1.1258619000436738],['target'],9962,1,2022-09-27_18h52.29.674,T5,2022.2.3,60.19360671
92,0,92,0,5,156.989422,156.989422,0.0114217,[0.37962962962962965],[0.47685185185185186],[1],[0],[0],[1.285130999982357],['target'],9962,1,2022-09-27_18h52.29.674,T5,2022.2.3,60.19360671
93,0,93,0,10,158.3074656,158.3074656,0.0253964,[0.24537037037037038],[0.03333333333333333],[1],[0],[0],[1.7655003999825567],['target'],9962,1,2022-09-27_18h52.29.674,T5,2022.2.3,60.19360671
94,0,94,0,5,160.0864291,160.0864291,0.0110927,[-0.19722222222222222],[-0.16944444444444445],[1],[0],[0],[1.0857431999756955],['target'],9962,1,2022-09-27_18h52.29.674,T5,2022.2.3,60.19360671
95,0,95,0,5,161.1865221,161.1865221,0.0115318,[0.4444444444444444],[-0.13425925925925927],[1],[0],[0],[1.5831422000192106],['target'],9962,1,2022-09-27_18h52.29.674,T5,2022.2.3,60.19360671
96,0,96,0,5,162.7832632,162.7832632,0.0096674,[-0.18611111111111112],[-0.22314814814814815],[1],[0],[0],[1.3676815999788232],['target'],9962,1,2022-09-27_18h52.29.674,T5,2022.2.3,60.19360671
97,0,97,0,10,164.1781021,164.1781021,0.0215691,[0.46296296296296297],[-0.2722222222222222],[1],[0],[0],[0.8908184000174515],['target'],9962,1,2022-09-27_18h52.29.674,T5,2022.2.3,60.19360671
98,0,98,0,5,165.0884382,165.0884382,0.0151297,[-0.31574074074074077],[0.412962962962963],[1],[0],[0],[1.2795500999782234],['target'],9962,1,2022-09-27_18h52.29.674,T5,2022.2.3,60.19360671
99,0,99,0,5,166.385246,166.385246,0.0117884,[0.31666666666666665],[0.18703703703703703],[1],[0],[0],[1.0972259000409395],['target'],9962,1,2022-09-27_18h52.29.674,T5,2022.2.3,60.19360671
100,0,100,0,10,167.5159185,167.5159185,0.0252694,[-0.45],[-0.44074074074074077],[1],[0],[0],[1.5016578999930061],['target'],9962,1,2022-09-27_18h52.29.674,T5,2022.2.3,60.19360671
101,0,101,0,5,169.0301605,169.0301605,0.0105154,[-0.024074074074074074],[-0.2490740740740741],[1],[0],[0],[0.78422239999054],['target'],9962,1,2022-09-27_18h52.29.674,T5,2022.2.3,60.19360671
102,0,102,0,10,169.8441869,169.8441869,0.0234401,[0.33055555555555555],[0.40925925925925927],[1],[0],[0],[1.503848000022117],['target'],9962,1,2022-09-27_18h52.29.674,T5,2022.2.3,60.19360671
103,0,103,0,5,171.3627872,171.3627872,0.012124,[-0.43703703703703706],[0.47685185185185186],[1],[0],[0],[1.7140676000271924],['target'],9962,1,2022-09-27_18h52.29.674,T5,2022.2.3,60.19360671
104,0,104,0,10,173.1074557,173.1074557,0.0211994,[0.08148148148148149],[-0.33240740740740743],[1],[0],[0],[1.3546597000095062],['target'],9962,1,2022-09-27_18h52.29.674,T5,2022.2.3,60.19360671
105,0,105,0,10,174.488362,174.488362,0.0205717,[-0.5120370370370371],[-0.16666666666666666],[1],[0],[0],[1.1053400000091642],['target'],9962,1,2022-09-27_18h52.29.674,T5,2022.2.3,60.19360671
106,0,106,0,5,175.6065961,175.6065961,0.0112472,[-0.17777777777777778],[0.3768518518518518],[1],[0],[0],[1.4521271000267006],['target'],9962,1,2022-09-27_18h52.29.674,T5,2022.2.3,60.19360671
107,0,107,0,5,177.0756996,177.0756996,0.0116077,[-0.4148148148148148],[-0.26481481481481484],[1],[0],[0],[1.1473559999722056],['target'],9962,1,2022-09-27_18h52.29.674,T5,2022.2.3,60.19360671
108,0,108,0,5,178.2415901,178.2415901,0.0141051,[0.30277777777777776],[-0.34074074074074073],[1],[0],[0],[1.7799632999813184],['target'],9962,1,2022-09-27_18h52.29.674,T5,2022.2.3,60.19360671
109,0,109,0,10,180.0475192,180.0475192,0.0220687,[0.07037037037037037],[0.13055555555555556],[1],[0],[0],[0.9908699999796227],['target'],9962,1,2022-09-27_18h52.29.674,T5,2022.2.3,60.19360671
110,0,110,0,5,181.05728,181.05728,0.0155045,[-0.032407407407407406],[0.28055555555555556],[1],[0],[0],[0.8637460999889299],['target'],9962,1,2022-09-27_18h52.29.674,T5,2022.2.3,60.19360671
111,0,111,0,5,181.9336216,181.9336216,0.0108749,[0.33055555555555555],[0.12314814814814815],[1],[0],[0],[1.1027866000076756],['target'],9962,1,2022-09-27_18h52.29.674,T5,2022.2.3,60.19360671
112,0,112,0,5,183.0553412,183.0553412,0.0142186,[-0.15833333333333333],[0.28703703703703703],[1],[0],[0],[1.2981396000250243],['target'],9962,1,2022-09-27_18h52.29.674,T5,2022.2.3,60.19360671
113,0,113,0,5,184.3728936,184.3728936,0.0152479,[-0.041666666666666664],[-0.14166666666666666],[1],[0],[0],[1.5435874999966472],['target'],9962,1,2022-09-27_18h52.29.674,T5,2022.2.3,60.19360671
114,0,114,0,10,185.9394424,185.9394424,0.0193316,[0.11481481481481481],[0.4101851851851852],[1],[0],[0],[1.2773244999698363],['target'],9962,1,2022-09-27_18h52.29.674,T5,2022.2.3,60.19360671
115,0,115,0,5,187.2325152,187.2325152,0.0117989,[0.26296296296296295],[0.025925925925925925],[1],[0],[0],[1.7818840999971144],['target'],9962,1,2022-09-27_18h52.29.674,T5,2022.2.3,60.19360671
116,0,116,0,10,189.0415554,189.0415554,0.0214106,[-0.375],[-0.3490740740740741],[1],[0],[0],[1.589399599994067],['target'],9962,1,2022-09-27_18h52.29.674,T5,2022.2.3,60.19360671
117,0,117,0,5,190.6451514,190.6451514,0.0134622,[0.13055555555555556],[-0.44351851851851853],[1],[0],[0],[1.1996754999854602],['target'],9962,1,2022-09-27_18h52.29.674,T5,2022.2.3,60.19360671
118,0,118,0,10,191.8775449,191.8775449,0.0232084,[0.36944444444444446],[-0.09166666666666666],[1],[0],[0],[1.0367549000075087],['target'],9962,1,2022-09-27_18h52.29.674,T5,2022.2.3,60.19360671
119,0,119,0,5,192.9289726,192.9289726,0.0128938,[0.2],[-0.1935185185185185],[1],[0],[0],[1.1143287000013515],['target'],9962,1,2022-09-27_18h52.29.674,T5,2022.2.3,60.19360671
120,0,120,0,10,194.0726978,194.0726978,0.021572,[0.24351851851851852],[0.21666666666666667],[1],[0],[0],[1.6543129000347108],['target'],9962,1,2022-09-27_18h52.29.674,T5,2022.2.3,60.19360671
121,0,121,0,5,195.7411963,195.7411963,0.0128259,[0.03148148148148148],[0.21666666666666667],[1],[0],[0],[0.917879200016614],['target'],9962,1,2022-09-27_18h52.29.674,T5,2022.2.3,60.19360671
122,0,122,0,10,196.6852739,196.6852739,0.0189584,[-0.3527777777777778],[-0.17592592592592593],[1],[0],[0],[1.2756221999879926],['target'],9962,1,2022-09-27_18h52.29.674,T5,2022.2.3,60.19360671
123,0,123,0,5,197.9722054,197.9722054,0.0107688,[0.01574074074074074],[0.3592592592592593],[1],[0],[0],[1.0668139000190422],['target'],9962,1,2022-09-27_18h52.29.674,T5,2022.2.3,60.19360671
124,0,124,0,10,199.0623969,199.0623969,0.0186796,[-0.2962962962962963],[-0.3962962962962963],[1],[0],[0],[1.2772894999943674],['target'],9962,1,2022-09-27_18h52.29.674,T5,2022.2.3,60.19360671
125,0,125,0,10,200.3600327,200.3600327,0.0174871,[0.14351851851851852],[0.07962962962962963],[1],[0],[0],[0.8954582000151277],['target'],9962,1,2022-09-27_18h52.29.674,T5,2022.2.3,60.19360671
126,0,126,0,10,201.283799,201.283799,0.0226654,[0.32222222222222224],[0.36666666666666664],[1],[0],[0],[0.9715134999714792],['target'],9962,1,2022-09-27_18h52.29.674,T5,2022.2.3,60.19360671
127,0,127,0,10,202.279369,202.279369,0.0193266,[-0.49907407407407406],[-0.13703703703703704],[1],[0],[0],[1.7094628000049852],['target'],9962,1,2022-09-27_18h52.29.674,T5,2022.2.3,60.19360671
128,0,128,0,10,204.0176543,204.0176543,0.021738,[0.34444444444444444],[-0.36018518518518516],[1],[0],[0],[1.7527553000254557],['target'],9962,1,2022-09-27_18h52.29.674,T5,2022.2.3,60.19360671
129,0,129,0,10,205.7961382,205.7961382,0.0225375,[-0.33425925925925926],[-0.2111111111111111],[1],[0],[0],[1.3539086999953724],['target'],9962,1,2022-09-27_18h52.29.674,T5,2022.2.3,60.19360671
130,0,130,0,5,207.1694647,207.1694647,0.0140233,[0.33611111111111114],[-0.45555555555555555],[1],[0],[0],[2.3616252000210807],['target'],9962,1,2022-09-27_18h52.29.674,T5,2022.2.3,60.19360671
131,0,131,0,5,209.5490193,209.5490193,0.0148227,[-0.17407407407407408],[0.21388888888888888],[1],[0],[0],[1.96385169995483],['target'],9962,1,2022-09-27_18h52.29.674,T5,2022.2.3,60.19360671
132,0,132,0,10,211.5413461,211.5413461,0.0226885,[-0.4527777777777778],[-0.07407407407407407],[1],[0],[0],[1.2202802000101656],['target'],9962,1,2022-09-27_18h52.29.674,T5,2022.2.3,60.19360671
133,0,133,0,10,212.7914824,212.7914824,0.0203216,[-0.28425925925925927],[-0.07314814814814814],[1],[0],[0],[1.408131100004539],['target'],9962,1,2022-09-27_18h52.29.674,T5,2022.2.3,60.19360671
134,0,134,0,5,214.2175093,214.2175093,0.0178128,[0.3416666666666667],[-0.3972222222222222],[1],[0],[0],[1.7080625999951735],['target'],9962,1,2022-09-27_18h52.29.674,T5,2022.2.3,60.19360671
135,0,135,0,5,215.9365855,215.9365855,0.0089874,[0.3851851851851852],[0.25833333333333336],[1],[0],[0],[1.0875285000074655],['target'],9962,1,2022-09-27_18h52.29.674,T5,2022.2.3,60.19360671
136,0,136,0,10,217.0543432,217.0543432,0.0197686,[0.3490740740740741],[0.08796296296296297],[1],[0],[0],[1.0883922000066377],['target'],9962,1,2022-09-27_18h52.29.674,T5,2022.2.3,60.19360671
137,0,137,0,5,218.158817,218.158817,0.0140443,[-0.15],[-0.12685185185185185],[1],[0],[0],[1.0137371000018902],['target'],9962,1,2022-09-27_18h52.29.674,T5,2022.2.3,60.19360671
138,0,138,0,10,219.1995407,219.1995407,0.0192014,[0.40925925925925927],[0.06851851851851852],[1],[0],[0],[1.1753367999917828],['target'],9962,1,2022-09-27_18h52.29.674,T5,2022.2.3,60.19360671
139,0,139,0,10,220.3993104,220.3993104,0.0216726,[-0.4638888888888889],[0.09722222222222222],[1],[0],[0],[1.0231670999783091],['target'],9962,1,2022-09-27_18h52.29.674,T5,2022.2.3,60.19360671
140,0,140,0,5,221.4342834,221.4342834,0.0092198,[-0.37777777777777777],[-0.38055555555555554],[1],[0],[0],[1.2036236000130884],['target'],9962,1,2022-09-27_18h52.29.674,T5,2022.2.3,60.19360671
141,0,141,0,5,222.6512338,222.6512338,0.0123258,[-0.20462962962962963],[-0.40925925925925927],[1],[0],[0],[0.9681931000086479],['target'],9962,1,2022-09-27_18h52.29.674,T5,2022.2.3,60.19360671
142,0,142,0,5,223.6578707,223.6578707,0.0234365,[-0.05462962962962963],[-0.21296296296296297],[1],[0],[0],[1.1496355999843217],['target'],9962,1,2022-09-27_18h52.29.674,T5,2022.2.3,60.19360671
143,0,143,0,5,224.8351448,224.8351448,0.0240491,[-0.13518518518518519],[0.23055555555555557],[1],[0],[0],[1.0843630000017583],['target'],9962,1,2022-09-27_18h52.29.674,T5,2022.2.3,60.19360671
144,0,144,0,5,225.9286102,225.9286102,0.0091286,[0.175],[-0.05740740740740741],[1],[0],[0],[1.0876490999944508],['target'],9962,1,2022-09-27_18h52.29.674,T5,2022.2.3,60.19360671
145,0,145,0,10,227.0492977,227.0492977,0.0265436,[-0.17037037037037037],[-0.008333333333333333],[1],[0],[0],[1.1674588000169024],['target'],9962,1,2022-09-27_18h52.29.674,T5,2022.2.3,60.19360671
146,0,146,0,5,228.2316193,228.2316193,0.0122732,[0.075],[-0.38796296296296295],[1],[0],[0],[1.1323793000192381],['target'],9962,1,2022-09-27_18h52.29.674,T5,2022.2.3,60.19360671
147,0,147,0,10,229.3924516,229.3924516,0.0202477,[0.4425925925925926],[0.42962962962962964],[1],[0],[0],[1.3727506000432186],['target'],9962,1,2022-09-27_18h52.29.674,T5,2022.2.3,60.19360671
148,0,148,0,5,230.7779616,230.7779616,0.0100947,[-0.4685185185185185],[-0.1175925925925926],[1],[0],[0],[1.417205500009004],['target'],9962,1,2022-09-27_18h52.29.674,T5,2022.2.3,60.19360671
149,0,149,0,10,232.2265527,232.2265527,0.0219139,[-0.06666666666666667],[0.10925925925925926],[1],[0],[0],[1.1045634999754839],['target'],9962,1,2022-09-27_18h52.29.674,T5,2022.2.3,60.19360671
150,0,150,0,5,233.3478656,233.3478656,0.0145587,[-0.2861111111111111],[-0.3138888888888889],[1],[0],[0],[0.964380000019446],['target'],9962,1,2022-09-27_18h52.29.674,T5,2022.2.3,60.19360671
151,0,151,0,10,234.337084,234.337084,0.0206125,[-0.22962962962962963],[-0.475],[1],[0],[0],[1.2231443999917246],['target'],9962,1,2022-09-27_18h52.29.674,T5,2022.2.3,60.19360671
152,0,152,0,5,235.5824353,235.5824353,0.0167356,[0.03981481481481482],[-0.07407407407407407],[1],[0],[0],[1.1760626999894157],['target'],9962,1,2022-09-27_18h52.29.674,T5,2022.2.3,60.19360671
153,0,153,0,10,236.7823808,236.7823808,0.0174255,[0.11296296296296296],[-0.030555555555555555],[1],[0],[0],[0.7427235000068322],['target'],9962,1,2022-09-27_18h52.29.674,T5,2022.2.3,60.19360671
154,0,154,0,10,237.5465416,237.5465416,0.0189337,[-0.3398148148148148],[-0.2759259259259259],[1],[0],[0],[1.2601533000124618],['target'],9962,1,2022-09-27_18h52.29.674,T5,2022.2.3,60.19360671
155,0,155,0,5,238.8291653,238.8291653,0.0167487,[0.15462962962962962],[0.03518518518518519],[1],[0],[0],[1.0598862000042573],['target'],9962,1,2022-09-27_18h52.29.674,T5,2022.2.3,60.19360671
156,0,156,0,10,239.9149309,239.9149309,0.0196951,[0.08888888888888889],[-0.3675925925925926],[1],[0],[0],[0.9745994000113569],['target'],9962,1,2022-09-27_18h52.29.674,T5,2022.2.3,60.19360671
157,0,157,0,5,240.8999827,240.8999827,0.0091417,[-0.3888888888888889],[0.39166666666666666],[1],[0],[0],[1.5701803999836557],['target'],9962,1,2022-09-27_18h52.29.674,T5,2022.2.3,60.19360671
158,0,158,0,5,242.483461,242.483461,0.0094207,[0.09722222222222222],[-0.43148148148148147],[1],[0],[0],[1.2193427999736741],['target'],9962,1,2022-09-27_18h52.29.674,T5,2022.2.3,60.19360671
159,0,159,0,5,243.7194164,243.7194164,0.0107515,[0.10555555555555556],[0.2037037037037037],[1],[0],[0],[1.0668544000363909],['target'],9962,1,2022-09-27_18h52.29.674,T5,2022.2.3,60.19360671
160,0,160,0,10,244.8176217,244.8176217,0.0247295,[-0.2212962962962963],[-0.10277777777777777],[1],[0],[0],[1.0346567999804392],['target'],9962,1,2022-09-27_18h52.29.674,T5,2022.2.3,60.19360671
161,0,161,0,5,245.8643807,245.8643807,0.0102197,[0.03611111111111111],[0.46111111111111114],[1],[0],[0],[1.1527666000183672],['target'],9962,1,2022-09-27_18h52.29.674,T5,2022.2.3,60.19360671
162,0,162,0,10,247.0419629,247.0419629,0.0201286,[0.23055555555555557],[-0.28703703703703703],[1],[0],[0],[1.5750896999961697],['target'],9962,1,2022-09-27_18h52.29.674,T5,2022.2.3,60.19360671
163,0,163,0,5,248.6310878,248.6310878,0.0130317,[0.16296296296296298],[-0.32222222222222224],[1],[0],[0],[0.6834722000057809],['target'],9962,1,2022-09-27_18h52.29.674,T5,2022.2.3,60.19360671
164,0,164,0,5,249.3474019,249.3474019,0.0224972,[0.2388888888888889],[-0.46944444444444444],[1],[0],[0],[0.9701836999738589],['target'],9962,1,2022-09-27_18h52.29.674,T5,2022.2.3,60.19360671
165,0,165,0,10,250.3725164,250.3725164,0.0410411,[0.13796296296296295],[0.23148148148148148],[1],[0],[0],[1.082380199979525],['target'],9962,1,2022-09-27_18h52.29.674,T5,2022.2.3,60.19360671
166,0,166,0,10,251.5088057,251.5088057,0.0468268,[-0.32407407407407407],[-0.013888888888888888],[1],[0],[0],[1.0966224999865517],['target'],9962,1,2022-09-27_18h52.29.674,T5,2022.2.3,60.19360671
167,0,167,0,5,252.6276517,252.6276517,0.0230619,[0.2175925925925926],[-0.35648148148148145],[1],[0],[0],[1.318751799990423],['target'],9962,1,2022-09-27_18h52.29.674,T5,2022.2.3,60.19360671
168,0,168,0,10,253.9783224,253.9783224,0.0280646,[0.1962962962962963],[0.1111111111111111],[1],[0],[0],[0.950910399958957],['target'],9962,1,2022-09-27_18h52.29.674,T5,2022.2.3,60.19360671
169,0,169,0,5,254.9541491,254.9541491,0.0122907,[-0.44537037037037036],[0.3962962962962963],[1],[0],[0],[1.2381552000297233],['target'],9962,1,2022-09-27_18h52.29.674,T5,2022.2.3,60.19360671
170,0,170,0,10,256.2530389,256.2530389,0.0491019,[-0.044444444444444446],[0.46944444444444444],[1],[0],[0],[2.4589373000198975],['target'],9962,1,2022-09-27_18h52.29.674,T5,2022.2.3,60.19360671
171,0,171,0,10,258.7684468,258.7684468,0.0447889,[-0.023148148148148147],[-0.17685185185185184],[1],[0],[0],[1.3139873999753036],['target'],9962,1,2022-09-27_18h52.29.674,T5,2022.2.3,60.19360671
172,0,172,0,5,260.0943035,260.0943035,0.016505,[-0.512962962962963],[0.05648148148148148],[1],[0],[0],[1.0761834000004455],[],9962,1,2022-09-27_18h52.29.674,T5,2022.2.3,60.19360671
173,0,173,0,10,261.195251,261.195251,0.0185241,[-0.44351851851851853],[-0.39444444444444443],[1],[0],[0],[1.2590533000184223],['target'],9962,1,2022-09-27_18h52.29.674,T5,2022.2.3,60.19360671
174,0,174,0,10,262.4808782,262.4808782,0.0218674,[0.33240740740740743],[0.48703703703703705],[1],[0],[0],[1.7897871000459418],['target'],9962,1,2022-09-27_18h52.29.674,T5,2022.2.3,60.19360671
175,0,175,0,5,264.2892228,264.2892228,0.0152881,[-0.49722222222222223],[0.07222222222222222],[1],[0],[0],[1.3783072999794967],['target'],9962,1,2022-09-27_18h52.29.674,T5,2022.2.3,60.19360671
176,0,176,0,10,265.6933957,265.6933957,0.0202306,[-0.10925925925925926],[-0.15185185185185185],[1],[0],[0],[1.1907112000044435],['target'],9962,1,2022-09-27_18h52.29.674,T5,2022.2.3,60.19360671
177,0,177,0,10,266.9057629,266.9057629,0.0173975,[0.09907407407407408],[0.4740740740740741],[1],[0],[0],[1.2108742999844253],['target'],9962,1,2022-09-27_18h52.29.674,T5,2022.2.3,60.19360671
178,0,178,0,5,268.1323501,268.1323501,0.0103251,[-0.075],[-0.18333333333333332],[1],[0],[0],[1.0994186000316404],['target'],9962,1,2022-09-27_18h52.29.674,T5,2022.2.3,60.19360671
179,0,179,0,5,269.2457747,269.2457747,0.0109865,[0.11574074074074074],[-0.48148148148148145],[1],[0],[0],[1.7844729000353254],['target'],9962,1,2022-09-27_18h52.29.674,T5,2022.2.3,60.19360671
180,0,180,0,10,271.0537684,271.0537684,0.018335,[-0.22314814814814815],[-0.025925925925925925],[1],[0],[0],[1.0950224000262097],['target'],9962,1,2022-09-27_18h52.29.674,T5,2022.2.3,60.19360671
181,0,181,0,5,272.1606587,272.1606587,0.0116284,[-0.14444444444444443],[-0.0962962962962963],[1],[0],[0],[0.900922900007572],['target'],9962,1,2022-09-27_18h52.29.674,T5,2022.2.3,60.19360671
182,0,182,0,10,273.090944,273.090944,0.0218445,[-0.49537037037037035],[0.39166666666666666],[1],[0],[0],[1.0055132000125013],['target'],9962,1,2022-09-27_18h52.29.674,T5,2022.2.3,60.19360671
183,0,183,0,5,274.1181187,274.1181187,0.015969,[-0.20833333333333334],[0.10555555555555556],[1],[0],[0],[0.9434107000124641],['target'],9962,1,2022-09-27_18h52.29.674,T5,2022.2.3,60.19360671
184,0,184,0,5,275.0822135,275.0822135,0.0147606,[0.08981481481481482],[-0.19907407407407407],[1],[0],[0],[1.2451330999610946],['target'],9962,1,2022-09-27_18h52.29.674,T5,2022.2.3,60.19360671
185,0,185,0,10,276.3545263,276.3545263,0.019699,[-0.3685185185185185],[0.18981481481481483],[1],[0],[0],[1.4562145000090823],['target'],9962,1,2022-09-27_18h52.29.674,T5,2022.2.3,60.19360671
186,0,186,0,5,277.8232998,277.8232998,0.0110169,[0.1675925925925926],[0.42777777777777776],[1],[0],[0],[1.3168634999892674],['target'],9962,1,2022-09-27_18h52.29.674,T5,2022.2.3,60.19360671
187,0,187,0,5,279.1548087,279.1548087,0.0109177,[0.37222222222222223],[-0.07222222222222222],[1],[0],[0],[1.7359872999950312],['target'],9962,1,2022-09-27_18h52.29.674,T5,2022.2.3,60.19360671
188,0,188,0,5,280.9137231,280.9137231,0.0167465,[-0.06666666666666667],[-0.09814814814814815],[1],[0],[0],[1.2753197000129148],['target'],9962,1,2022-09-27_18h52.29.674,T5,2022.2.3,60.19360671
189,0,189,0,10,282.2374337,282.2374337,0.0411624,[0.04259259259259259],[-0.23703703703703705],[1],[0],[0],[1.4846183999907225],['target'],9962,1,2022-09-27_18h52.29.674,T5,2022.2.3,60.19360671
190,0,190,0,5,283.7332737,283.7332737,0.0109379,[-0.05092592592592592],[0.4398148148148148],[1],[0],[0],[1.0353115999605507],['target'],9962,1,2022-09-27_18h52.29.674,T5,2022.2.3,60.19360671
191,0,191,0,10,284.7925598,284.7925598,0.0186873,[0.28703703703703703],[0.45740740740740743],[1],[0],[0],[1.5258511999854818],['target'],9962,1,2022-09-27_18h52.29.674,T5,2022.2.3,60.19360671
192,0,192,0,10,286.3426911,286.3426911,0.0174571,[-0.07222222222222222],[-0.30925925925925923],[1],[0],[0],[1.5283042999799363],['target'],9962,1,2022-09-27_18h52.29.674,T5,2022.2.3,60.19360671
193,0,193,0,10,287.8901666,287.8901666,0.0172723,[0.2037037037037037],[0.13518518518518519],[1],[0],[0],[1.077845099964179],['target'],9962,1,2022-09-27_18h52.29.674,T5,2022.2.3,60.19360671
194,0,194,0,10,288.9943801,288.9943801,0.0174535,[-0.4675925925925926],[-0.3472222222222222],[1],[0],[0],[1.6606026000226848],['target'],9962,1,2022-09-27_18h52.29.674,T5,2022.2.3,60.19360671
195,0,195,0,5,290.6599523,290.6599523,0.0096991,[0.13148148148148148],[-0.26851851851851855],[1],[0],[0],[1.1857272000052035],['target'],9962,1,2022-09-27_18h52.29.674,T5,2022.2.3,60.19360671
196,0,196,0,5,291.8597911,291.8597911,0.0096495,[0.3814814814814815],[-0.462037037037037],[1],[0],[0],[1.7356611999566667],['target'],9962,1,2022-09-27_18h52.29.674,T5,2022.2.3,60.19360671
197,0,197,0,10,293.6244978,293.6244978,0.0230919,[0.33425925925925926],[0.3074074074074074],[1],[0],[0],[1.2541747000068426],['target'],9962,1,2022-09-27_18h52.29.674,T5,2022.2.3,60.19360671
198,0,198,0,10,294.9100747,294.9100747,0.0230573,[-0.44907407407407407],[0.3990740740740741],[1],[0],[0],[1.0693710999912582],['target'],9962,1,2022-09-27_18h52.29.674,T5,2022.2.3,60.19360671
199,0,199,0,5,295.9906152,295.9906152,0.0098685,[0.3037037037037037],[0.1787037037037037],[1],[0],[0],[1.151609099993948],['target'],9962,1,2022-09-27_18h52.29.674,T5,2022.2.3,60.19360671
