trials.thisRepN,trials.thisTrialN,trials.thisN,trials.thisIndex,num_distr,fixation.started,target.started,mouse.started,mouse.x,mouse.y,mouse.leftButton,mouse.midButton,mouse.rightButton,mouse.time,mouse.clicked_name,participant,session,date,expName,psychopyVersion,frameRate
0,0,0,0,10,16.5724159,16.5724159,0.0578539,[-0.13148148148148148],[-0.10925925925925926],[1],[0],[0],[4.1186266999998224],['target'],994909,1,2022-09-21_15h40.34.126,Visual search sept 29'22,2022.2.3,59.9599108
1,0,1,0,5,20.7087022,20.7087022,0.0229582,[-0.024074074074074074],[0.19907407407407407],[1],[0],[0],[2.4154928000002656],[],994909,1,2022-09-21_15h40.34.126,Visual search sept 29'22,2022.2.3,59.9599108
2,0,2,0,10,23.1780052,23.1780052,0.0454025,[-0.15462962962962962],[0.12314814814814815],[1],[0],[0],[1.113452800000232],['target'],994909,1,2022-09-21_15h40.34.126,Visual search sept 29'22,2022.2.3,59.9599108
3,0,3,0,5,24.3196054,24.3196054,0.0228465,[0.39444444444444443],[-0.003703703703703704],[1],[0],[0],[1.4714883000001464],[],994909,1,2022-09-21_15h40.34.126,Visual search sept 29'22,2022.2.3,59.9599108
4,0,4,0,5,25.8209321,25.8209321,0.0258805,[0.12407407407407407],[-0.12777777777777777],[1],[0],[0],[1.1830595999999787],['target'],994909,1,2022-09-21_15h40.34.126,Visual search sept 29'22,2022.2.3,59.9599108
5,0,5,0,5,27.0345846,27.0345846,0.0212761,[-0.1287037037037037],[0.17777777777777778],[1],[0],[0],[2.137652099999741],['target'],994909,1,2022-09-21_15h40.34.126,Visual search sept 29'22,2022.2.3,59.9599108
6,0,6,0,10,29.2277339,29.2277339,0.0470033,[-0.1824074074074074],[-0.487962962962963],[1],[0],[0],[2.3126083000001927],[],994909,1,2022-09-21_15h40.34.126,Visual search sept 29'22,2022.2.3,59.9599108
7,0,7,0,10,31.5936833,31.5936833,0.0461874,[0.2833333333333333],[-0.09907407407407408],[1],[0],[0],[1.581123999999818],[],994909,1,2022-09-21_15h40.34.126,Visual search sept 29'22,2022.2.3,59.9599108
8,0,8,0,10,33.2274516,33.2274516,0.0448026,[-0.23981481481481481],[0.49166666666666664],[1],[0],[0],[2.38077659999999],['target'],994909,1,2022-09-21_15h40.34.126,Visual search sept 29'22,2022.2.3,59.9599108
9,0,9,0,5,35.6345658,35.6345658,0.0223022,[-0.5231481481481481],[-0.44722222222222224],[1],[0],[0],[2.269773399999849],[],994909,1,2022-09-21_15h40.34.126,Visual search sept 29'22,2022.2.3,59.9599108
10,0,10,0,5,37.9353949,37.9353949,0.0240062,[-0.48148148148148145],[0.40925925925925927],[1],[0],[0],[2.735686099999839],['target'],994909,1,2022-09-21_15h40.34.126,Visual search sept 29'22,2022.2.3,59.9599108
11,0,11,0,5,40.7023908,40.7023908,0.0216159,[-0.21944444444444444],[-0.2916666666666667],[1],[0],[0],[2.219571099999939],['target'],994909,1,2022-09-21_15h40.34.126,Visual search sept 29'22,2022.2.3,59.9599108
12,0,12,0,5,42.9495619,42.9495619,0.0252356,[-0.2740740740740741],[-0.14814814814814814],[1],[0],[0],[1.401977800000168],['target'],994909,1,2022-09-21_15h40.34.126,Visual search sept 29'22,2022.2.3,59.9599108
13,0,13,0,10,44.4068016,44.4068016,0.0454621,[0.05925925925925926],[0.06018518518518518],[1],[0],[0],[3.081475500000124],['target'],994909,1,2022-09-21_15h40.34.126,Visual search sept 29'22,2022.2.3,59.9599108
14,0,14,0,10,47.544838,47.544838,0.0488658,[0.13240740740740742],[-0.225],[1],[0],[0],[2.01013520000015],['target'],994909,1,2022-09-21_15h40.34.126,Visual search sept 29'22,2022.2.3,59.9599108
15,0,15,0,5,49.5818414,49.5818414,0.0258813,[0.12314814814814815],[-0.11481481481481481],[1],[0],[0],[1.6997283999999127],['target'],994909,1,2022-09-21_15h40.34.126,Visual search sept 29'22,2022.2.3,59.9599108
16,0,16,0,5,51.313784,51.313784,0.0239419,[0.2601851851851852],[0.20925925925925926],[1],[0],[0],[1.2367692999996507],[],994909,1,2022-09-21_15h40.34.126,Visual search sept 29'22,2022.2.3,59.9599108
17,0,17,0,10,52.60572,52.60572,0.0433056,[-0.1111111111111111],[-0.10555555555555556],[1],[0],[0],[2.5179063999999016],['target'],994909,1,2022-09-21_15h40.34.126,Visual search sept 29'22,2022.2.3,59.9599108
18,0,18,0,5,55.1463411,55.1463411,0.0252827,[0.38981481481481484],[-0.2175925925925926],[1],[0],[0],[1.8013678000002074],['target'],994909,1,2022-09-21_15h40.34.126,Visual search sept 29'22,2022.2.3,59.9599108
19,0,19,0,5,56.9781434,56.9781434,0.0243052,[0.30185185185185187],[-0.2111111111111111],[1],[0],[0],[1.9033438999999817],['target'],994909,1,2022-09-21_15h40.34.126,Visual search sept 29'22,2022.2.3,59.9599108
20,0,20,0,10,58.9394839,58.9394839,0.045667,[0.37037037037037035],[-0.4675925925925926],[1],[0],[0],[2.914322899999661],['target'],994909,1,2022-09-21_15h40.34.126,Visual search sept 29'22,2022.2.3,59.9599108
21,0,21,0,5,61.8811795,61.8811795,0.0252596,[-0.1361111111111111],[0.0824074074074074],[1],[0],[0],[1.8014830000001893],['target'],994909,1,2022-09-21_15h40.34.126,Visual search sept 29'22,2022.2.3,59.9599108
22,0,22,0,5,63.7084481,63.7084481,0.0231456,[-0.004629629629629629],[0.07777777777777778],[1],[0],[0],[2.40479809999988],['target'],994909,1,2022-09-21_15h40.34.126,Visual search sept 29'22,2022.2.3,59.9599108
23,0,23,0,5,66.1435118,66.1435118,0.0245856,[-0.003703703703703704],[0.18981481481481483],[1],[0],[0],[1.319343199999821],['target'],994909,1,2022-09-21_15h40.34.126,Visual search sept 29'22,2022.2.3,59.9599108
24,0,24,0,10,67.5186171,67.5186171,0.0462593,[-0.425],[0.29444444444444445],[1],[0],[0],[2.412167099999806],['target'],994909,1,2022-09-21_15h40.34.126,Visual search sept 29'22,2022.2.3,59.9599108
25,0,25,0,10,69.9856681,69.9856681,0.0459539,[-0.2601851851851852],[-0.07777777777777778],[1],[0],[0],[2.1126485999998295],['target'],994909,1,2022-09-21_15h40.34.126,Visual search sept 29'22,2022.2.3,59.9599108
26,0,26,0,5,72.1246324,72.1246324,0.0243434,[0.3333333333333333],[-0.3435185185185185],[1],[0],[0],[2.369292399999722],['target'],994909,1,2022-09-21_15h40.34.126,Visual search sept 29'22,2022.2.3,59.9599108
27,0,27,0,10,74.5481151,74.5481151,0.0421851,[-0.34814814814814815],[0.49907407407407406],[1],[0],[0],[2.968898900000113],['target'],994909,1,2022-09-21_15h40.34.126,Visual search sept 29'22,2022.2.3,59.9599108
28,0,28,0,10,77.5700577,77.5700577,0.049,[-0.07037037037037037],[-0.2111111111111111],[1],[0],[0],[2.7761533999996573],['target'],994909,1,2022-09-21_15h40.34.126,Visual search sept 29'22,2022.2.3,59.9599108
29,0,29,0,10,80.4030254,80.4030254,0.0505437,[-0.04537037037037037],[-0.08796296296296297],[1],[0],[0],[1.476292999999714],['target'],994909,1,2022-09-21_15h40.34.126,Visual search sept 29'22,2022.2.3,59.9599108
30,0,30,0,5,81.9117996,81.9117996,0.0261018,[0.42592592592592593],[-0.17222222222222222],[1],[0],[0],[2.0815904000000955],['target'],994909,1,2022-09-21_15h40.34.126,Visual search sept 29'22,2022.2.3,59.9599108
31,0,31,0,10,84.0493646,84.0493646,0.0469663,[0.45],[0.040740740740740744],[1],[0],[0],[2.5318162000003213],['target'],994909,1,2022-09-21_15h40.34.126,Visual search sept 29'22,2022.2.3,59.9599108
32,0,32,0,10,86.6268442,86.6268442,0.0439684,[-0.41759259259259257],[-0.14814814814814814],[1],[0],[0],[2.9846323000001576],['target'],994909,1,2022-09-21_15h40.34.126,Visual search sept 29'22,2022.2.3,59.9599108
33,0,33,0,10,89.6618103,89.6618103,0.0449936,[0.25833333333333336],[0.049074074074074076],[1],[0],[0],[2.5811109999999644],['target'],994909,1,2022-09-21_15h40.34.126,Visual search sept 29'22,2022.2.3,59.9599108
34,0,34,0,5,92.2715322,92.2715322,0.0212952,[0.25462962962962965],[-0.24351851851851852],[1],[0],[0],[2.3718089999997574],['target'],994909,1,2022-09-21_15h40.34.126,Visual search sept 29'22,2022.2.3,59.9599108
35,0,35,0,10,94.7041663,94.7041663,0.0512054,[0.08611111111111111],[0.2675925925925926],[1],[0],[0],[2.004746200000227],['target'],994909,1,2022-09-21_15h40.34.126,Visual search sept 29'22,2022.2.3,59.9599108
36,0,36,0,10,96.7666729,96.7666729,0.0482437,[0.17592592592592593],[-0.075],[1],[0],[0],[2.1096449000001485],['target'],994909,1,2022-09-21_15h40.34.126,Visual search sept 29'22,2022.2.3,59.9599108
37,0,37,0,5,98.9086033,98.9086033,0.0282528,[-0.4898148148148148],[0.4935185185185185],[1],[0],[0],[2.013298599999871],['target'],994909,1,2022-09-21_15h40.34.126,Visual search sept 29'22,2022.2.3,59.9599108
38,0,38,0,5,100.9594355,100.9594355,0.0313599,[-0.07592592592592592],[0.37407407407407406],[1],[0],[0],[1.8942517999998927],['target'],994909,1,2022-09-21_15h40.34.126,Visual search sept 29'22,2022.2.3,59.9599108
39,0,39,0,10,102.9133373,102.9133373,0.0447208,[0.26851851851851855],[0.4083333333333333],[1],[0],[0],[2.116406099999949],['target'],994909,1,2022-09-21_15h40.34.126,Visual search sept 29'22,2022.2.3,59.9599108
40,0,40,0,10,105.0869863,105.0869863,0.0547852,[-0.12222222222222222],[-0.23425925925925925],[1],[0],[0],[3.0845621999997093],['target'],994909,1,2022-09-21_15h40.34.126,Visual search sept 29'22,2022.2.3,59.9599108
41,0,41,0,10,108.2312053,108.2312053,0.0475599,[-0.37037037037037035],[0.4046296296296296],[1],[0],[0],[1.9438350000000355],['target'],994909,1,2022-09-21_15h40.34.126,Visual search sept 29'22,2022.2.3,59.9599108
42,0,42,0,5,110.1986338,110.1986338,0.0221792,[-0.017592592592592594],[-0.42407407407407405],[1],[0],[0],[2.503635800000211],['target'],994909,1,2022-09-21_15h40.34.126,Visual search sept 29'22,2022.2.3,59.9599108
43,0,43,0,5,112.7337506,112.7337506,0.0226204,[0.03333333333333333],[-0.44537037037037036],[1],[0],[0],[1.6697818000002371],['target'],994909,1,2022-09-21_15h40.34.126,Visual search sept 29'22,2022.2.3,59.9599108
44,0,44,0,5,114.4294054,114.4294054,0.0216982,[-0.17592592592592593],[-0.3731481481481482],[1],[0],[0],[1.8562377000002925],['target'],994909,1,2022-09-21_15h40.34.126,Visual search sept 29'22,2022.2.3,59.9599108
45,0,45,0,5,116.3145504,116.3145504,0.0243078,[-0.046296296296296294],[-0.37962962962962965],[1],[0],[0],[3.1351684999999634],['target'],994909,1,2022-09-21_15h40.34.126,Visual search sept 29'22,2022.2.3,59.9599108
46,0,46,0,10,119.5099757,119.5099757,0.0464081,[0.21666666666666667],[0.4564814814814815],[1],[0],[0],[2.795634699999937],['target'],994909,1,2022-09-21_15h40.34.126,Visual search sept 29'22,2022.2.3,59.9599108
47,0,47,0,10,122.3575208,122.3575208,0.0475649,[0.25925925925925924],[-0.4648148148148148],[1],[0],[0],[2.6288453000001937],['target'],994909,1,2022-09-21_15h40.34.126,Visual search sept 29'22,2022.2.3,59.9599108
48,0,48,0,10,125.044021,125.044021,0.0492877,[-0.07777777777777778],[0.30092592592592593],[1],[0],[0],[1.7274363999999878],['target'],994909,1,2022-09-21_15h40.34.126,Visual search sept 29'22,2022.2.3,59.9599108
49,0,49,0,10,126.8204882,126.8204882,0.0442841,[-0.16574074074074074],[-0.29259259259259257],[1],[0],[0],[3.714593100000002],['target'],994909,1,2022-09-21_15h40.34.126,Visual search sept 29'22,2022.2.3,59.9599108
50,0,50,0,5,130.5634931,130.5634931,0.022961,[0.040740740740740744],[-0.38425925925925924],[1],[0],[0],[1.7869490999996742],['target'],994909,1,2022-09-21_15h40.34.126,Visual search sept 29'22,2022.2.3,59.9599108
51,0,51,0,10,132.4061358,132.4061358,0.0482538,[-0.37037037037037035],[-0.48703703703703705],[1],[0],[0],[3.6778446000002987],['target'],994909,1,2022-09-21_15h40.34.126,Visual search sept 29'22,2022.2.3,59.9599108
52,0,52,0,10,136.1342059,136.1342059,0.0452641,[0.46574074074074073],[0.2564814814814815],[1],[0],[0],[3.081784299999981],['target'],994909,1,2022-09-21_15h40.34.126,Visual search sept 29'22,2022.2.3,59.9599108
53,0,53,0,10,139.2666889,139.2666889,0.0445085,[-0.15185185185185185],[0.05925925925925926],[1],[0],[0],[1.5979463000003307],['target'],994909,1,2022-09-21_15h40.34.126,Visual search sept 29'22,2022.2.3,59.9599108
54,0,54,0,10,140.9139238,140.9139238,0.0401209,[-0.4888888888888889],[0.1925925925925926],[1],[0],[0],[1.5681930000000648],['target'],994909,1,2022-09-21_15h40.34.126,Visual search sept 29'22,2022.2.3,59.9599108
55,0,55,0,5,142.5123822,142.5123822,0.025547,[-0.37777777777777777],[0.4777777777777778],[1],[0],[0],[1.7155052000002797],['target'],994909,1,2022-09-21_15h40.34.126,Visual search sept 29'22,2022.2.3,59.9599108
56,0,56,0,5,144.2609642,144.2609642,0.0259573,[0.387037037037037],[0.041666666666666664],[1],[0],[0],[2.2654454999992595],['target'],994909,1,2022-09-21_15h40.34.126,Visual search sept 29'22,2022.2.3,59.9599108
57,0,57,0,5,146.5568007,146.5568007,0.0248034,[-0.10277777777777777],[0.19907407407407407],[1],[0],[0],[1.3366691999999603],['target'],994909,1,2022-09-21_15h40.34.126,Visual search sept 29'22,2022.2.3,59.9599108
58,0,58,0,10,147.9540436,147.9540436,0.047921,[-0.30185185185185187],[0.262037037037037],[1],[0],[0],[1.9115748000003805],['target'],994909,1,2022-09-21_15h40.34.126,Visual search sept 29'22,2022.2.3,59.9599108
59,0,59,0,5,149.8948688,149.8948688,0.0293545,[0.05925925925925926],[0.05925925925925926],[1],[0],[0],[1.9631152000001748],['target'],994909,1,2022-09-21_15h40.34.126,Visual search sept 29'22,2022.2.3,59.9599108
60,0,60,0,10,151.9131422,151.9131422,0.0421845,[0.10462962962962963],[-0.4027777777777778],[1],[0],[0],[3.583735700000034],['target'],994909,1,2022-09-21_15h40.34.126,Visual search sept 29'22,2022.2.3,59.9599108
61,0,61,0,5,155.5271328,155.5271328,0.0294319,[0.3111111111111111],[-0.39537037037037037],[1],[0],[0],[2.080107899999348],['target'],994909,1,2022-09-21_15h40.34.126,Visual search sept 29'22,2022.2.3,59.9599108
62,0,62,0,5,157.6354842,157.6354842,0.0217714,[0.25555555555555554],[-0.041666666666666664],[1],[0],[0],[1.5714723000000959],['target'],994909,1,2022-09-21_15h40.34.126,Visual search sept 29'22,2022.2.3,59.9599108
63,0,63,0,5,159.2267005,159.2267005,0.0173304,[0.18796296296296297],[-0.31851851851851853],[1],[0],[0],[1.5288990000008198],['target'],994909,1,2022-09-21_15h40.34.126,Visual search sept 29'22,2022.2.3,59.9599108
64,0,64,0,5,160.7900537,160.7900537,0.0266506,[-0.2638888888888889],[-0.13148148148148148],[1],[0],[0],[2.266403900000114],['target'],994909,1,2022-09-21_15h40.34.126,Visual search sept 29'22,2022.2.3,59.9599108
65,0,65,0,10,163.1270337,163.1270337,0.0571093,[-0.18796296296296297],[-0.16296296296296298],[1],[0],[0],[1.2669843000003311],['target'],994909,1,2022-09-21_15h40.34.126,Visual search sept 29'22,2022.2.3,59.9599108
66,0,66,0,10,164.4493002,164.4493002,0.0500155,[-0.41203703703703703],[-0.03148148148148148],[1],[0],[0],[1.6452855999996245],['target'],994909,1,2022-09-21_15h40.34.126,Visual search sept 29'22,2022.2.3,59.9599108
67,0,67,0,10,166.1485523,166.1485523,0.0491558,[-0.4444444444444444],[0.2777777777777778],[1],[0],[0],[1.493097100000341],['target'],994909,1,2022-09-21_15h40.34.126,Visual search sept 29'22,2022.2.3,59.9599108
68,0,68,0,5,167.6677376,167.6677376,0.0221752,[-0.4546296296296296],[0.08148148148148149],[1],[0],[0],[1.8902239999997619],['target'],994909,1,2022-09-21_15h40.34.126,Visual search sept 29'22,2022.2.3,59.9599108
69,0,69,0,5,169.5903677,169.5903677,0.026094,[0.06851851851851852],[0.34074074074074073],[1],[0],[0],[2.2823648999992656],['target'],994909,1,2022-09-21_15h40.34.126,Visual search sept 29'22,2022.2.3,59.9599108
70,0,70,0,5,171.9051827,171.9051827,0.0287214,[0.03425925925925926],[-0.49166666666666664],[1],[0],[0],[2.3471081999996386],['target'],994909,1,2022-09-21_15h40.34.126,Visual search sept 29'22,2022.2.3,59.9599108
71,0,71,0,5,174.2931944,174.2931944,0.0283789,[-0.40555555555555556],[0.1648148148148148],[1],[0],[0],[2.297176799999761],['target'],994909,1,2022-09-21_15h40.34.126,Visual search sept 29'22,2022.2.3,59.9599108
72,0,72,0,5,176.6164649,176.6164649,0.0260287,[-0.44907407407407407],[0.2574074074074074],[1],[0],[0],[2.01793010000074],['target'],994909,1,2022-09-21_15h40.34.126,Visual search sept 29'22,2022.2.3,59.9599108
73,0,73,0,10,178.6908945,178.6908945,0.0465542,[0.05185185185185185],[0.03611111111111111],[1],[0],[0],[1.79655399999956],['target'],994909,1,2022-09-21_15h40.34.126,Visual search sept 29'22,2022.2.3,59.9599108
74,0,74,0,5,180.5239732,180.5239732,0.0313432,[0.06666666666666667],[0.2175925925925926],[1],[0],[0],[1.7086884999998802],['target'],994909,1,2022-09-21_15h40.34.126,Visual search sept 29'22,2022.2.3,59.9599108
75,0,75,0,10,182.2903695,182.2903695,0.0465909,[-0.4898148148148148],[-0.37777777777777777],[1],[0],[0],[3.2977974000004906],['target'],994909,1,2022-09-21_15h40.34.126,Visual search sept 29'22,2022.2.3,59.9599108
76,0,76,0,10,185.6488182,185.6488182,0.050973,[-0.24166666666666667],[0.44537037037037036],[1],[0],[0],[2.1737598999998227],['target'],994909,1,2022-09-21_15h40.34.126,Visual search sept 29'22,2022.2.3,59.9599108
77,0,77,0,10,187.8710643,187.8710643,0.0428291,[-0.3101851851851852],[-0.001851851851851852],[1],[0],[0],[1.7351994999999079],['target'],994909,1,2022-09-21_15h40.34.126,Visual search sept 29'22,2022.2.3,59.9599108
78,0,78,0,5,189.6328906,189.6328906,0.0211453,[-0.22407407407407406],[-0.04537037037037037],[1],[0],[0],[1.269501300000229],['target'],994909,1,2022-09-21_15h40.34.126,Visual search sept 29'22,2022.2.3,59.9599108
79,0,79,0,5,190.9327617,190.9327617,0.0230582,[-0.06759259259259259],[0.4185185185185185],[1],[0],[0],[2.1687358000008317],['target'],994909,1,2022-09-21_15h40.34.126,Visual search sept 29'22,2022.2.3,59.9599108
80,0,80,0,5,193.1297153,193.1297153,0.0213226,[-0.20833333333333334],[-0.24259259259259258],[1],[0],[0],[2.0379775000001246],['target'],994909,1,2022-09-21_15h40.34.126,Visual search sept 29'22,2022.2.3,59.9599108
81,0,81,0,5,195.2011338,195.2011338,0.0265768,[0.30185185185185187],[-0.05092592592592592],[1],[0],[0],[2.430470699999205],['target'],994909,1,2022-09-21_15h40.34.126,Visual search sept 29'22,2022.2.3,59.9599108
82,0,82,0,10,197.6969959,197.6969959,0.0500192,[0.4898148148148148],[0.1],[1],[0],[0],[1.655197699999917],['target'],994909,1,2022-09-21_15h40.34.126,Visual search sept 29'22,2022.2.3,59.9599108
83,0,83,0,10,199.4021786,199.4021786,0.0463169,[-0.29814814814814816],[-0.06018518518518518],[1],[0],[0],[1.896864899999855],['target'],994909,1,2022-09-21_15h40.34.126,Visual search sept 29'22,2022.2.3,59.9599108
84,0,84,0,10,201.3517566,201.3517566,0.0451084,[0.2388888888888889],[-0.3972222222222222],[1],[0],[0],[2.846200300000419],['target'],994909,1,2022-09-21_15h40.34.126,Visual search sept 29'22,2022.2.3,59.9599108
85,0,85,0,10,204.2566559,204.2566559,0.0493875,[-0.46111111111111114],[0.4101851851851852],[1],[0],[0],[1.9099593999999342],['target'],994909,1,2022-09-21_15h40.34.126,Visual search sept 29'22,2022.2.3,59.9599108
86,0,86,0,10,206.2237922,206.2237922,0.0481581,[-0.05],[0.15555555555555556],[1],[0],[0],[1.576565300000766],['target'],994909,1,2022-09-21_15h40.34.126,Visual search sept 29'22,2022.2.3,59.9599108
87,0,87,0,10,207.8478598,207.8478598,0.0423019,[0.375],[-0.43703703703703706],[1],[0],[0],[2.051919999999882],['target'],994909,1,2022-09-21_15h40.34.126,Visual search sept 29'22,2022.2.3,59.9599108
88,0,88,0,5,209.9236491,209.9236491,0.0234643,[-0.387037037037037],[-0.026851851851851852],[1],[0],[0],[1.687971700000162],['target'],994909,1,2022-09-21_15h40.34.126,Visual search sept 29'22,2022.2.3,59.9599108
89,0,89,0,10,211.6696396,211.6696396,0.0469474,[0.40925925925925927],[-0.3824074074074074],[1],[0],[0],[2.511293300000034],['target'],994909,1,2022-09-21_15h40.34.126,Visual search sept 29'22,2022.2.3,59.9599108
90,0,90,0,10,214.2344669,214.2344669,0.0468733,[0.1638888888888889],[0.1925925925925926],[1],[0],[0],[2.345054899999923],['target'],994909,1,2022-09-21_15h40.34.126,Visual search sept 29'22,2022.2.3,59.9599108
91,0,91,0,5,216.6069758,216.6069758,0.0216921,[-0.44351851851851853],[-0.4074074074074074],[1],[0],[0],[2.386759699999857],['target'],994909,1,2022-09-21_15h40.34.126,Visual search sept 29'22,2022.2.3,59.9599108
92,0,92,0,10,219.0487926,219.0487926,0.0463279,[-0.36203703703703705],[-0.23148148148148148],[1],[0],[0],[1.5144402000005357],['target'],994909,1,2022-09-21_15h40.34.126,Visual search sept 29'22,2022.2.3,59.9599108
93,0,93,0,5,220.5921412,220.5921412,0.0250071,[-0.016666666666666666],[0.15833333333333333],[1],[0],[0],[1.383875700000317],['target'],994909,1,2022-09-21_15h40.34.126,Visual search sept 29'22,2022.2.3,59.9599108
94,0,94,0,10,222.0298336,222.0298336,0.0458318,[-0.23981481481481481],[0.07222222222222222],[1],[0],[0],[1.2133998999997857],['target'],994909,1,2022-09-21_15h40.34.126,Visual search sept 29'22,2022.2.3,59.9599108
95,0,95,0,10,223.3021404,223.3021404,0.049501,[0.14444444444444443],[-0.10092592592592593],[1],[0],[0],[1.360048700000334],['target'],994909,1,2022-09-21_15h40.34.126,Visual search sept 29'22,2022.2.3,59.9599108
96,0,96,0,5,224.6881676,224.6881676,0.0246876,[-0.004629629629629629],[0.34629629629629627],[1],[0],[0],[1.7183606000007785],['target'],994909,1,2022-09-21_15h40.34.126,Visual search sept 29'22,2022.2.3,59.9599108
97,0,97,0,5,226.4447554,226.4447554,0.0297603,[-0.32222222222222224],[0.3351851851851852],[1],[0],[0],[2.6463456999999835],['target'],994909,1,2022-09-21_15h40.34.126,Visual search sept 29'22,2022.2.3,59.9599108
98,0,98,0,10,229.1442719,229.1442719,0.042292,[-0.3111111111111111],[0.24444444444444444],[1],[0],[0],[1.5872287000001961],['target'],994909,1,2022-09-21_15h40.34.126,Visual search sept 29'22,2022.2.3,59.9599108
99,0,99,0,10,230.7792752,230.7792752,0.0441833,[-0.04537037037037037],[-0.42592592592592593],[1],[0],[0],[2.4151511999998547],['target'],994909,1,2022-09-21_15h40.34.126,Visual search sept 29'22,2022.2.3,59.9599108
100,0,100,0,10,233.2470625,233.2470625,0.0463401,[0.23796296296296296],[-0.2814814814814815],[1],[0],[0],[2.2467028999999457],['target'],994909,1,2022-09-21_15h40.34.126,Visual search sept 29'22,2022.2.3,59.9599108
101,0,101,0,10,235.5467422,235.5467422,0.0461899,[0.23425925925925925],[-0.19814814814814816],[1],[0],[0],[1.4153136000004451],['target'],994909,1,2022-09-21_15h40.34.126,Visual search sept 29'22,2022.2.3,59.9599108
102,0,102,0,10,237.0126128,237.0126128,0.045393,[-0.24351851851851852],[-0.12314814814814815],[1],[0],[0],[1.7141332999999577],['target'],994909,1,2022-09-21_15h40.34.126,Visual search sept 29'22,2022.2.3,59.9599108
103,0,103,0,5,238.751667,238.751667,0.0229099,[-0.14074074074074075],[-0.2722222222222222],[1],[0],[0],[1.9213521000001492],['target'],994909,1,2022-09-21_15h40.34.126,Visual search sept 29'22,2022.2.3,59.9599108
104,0,104,0,5,240.7030594,240.7030594,0.0227739,[0.10648148148148148],[0.11296296296296296],[1],[0],[0],[1.3869746999998824],['target'],994909,1,2022-09-21_15h40.34.126,Visual search sept 29'22,2022.2.3,59.9599108
105,0,105,0,10,242.1435461,242.1435461,0.0448367,[-0.26944444444444443],[0.45185185185185184],[1],[0],[0],[1.616046500000266],['target'],994909,1,2022-09-21_15h40.34.126,Visual search sept 29'22,2022.2.3,59.9599108
106,0,106,0,5,243.7854675,243.7854675,0.0255421,[0.3638888888888889],[-0.3712962962962963],[1],[0],[0],[2.8000849999998536],['target'],994909,1,2022-09-21_15h40.34.126,Visual search sept 29'22,2022.2.3,59.9599108
107,0,107,0,10,246.6378268,246.6378268,0.0411067,[0.18518518518518517],[0.45092592592592595],[1],[0],[0],[2.153011299999889],['target'],994909,1,2022-09-21_15h40.34.126,Visual search sept 29'22,2022.2.3,59.9599108
108,0,108,0,5,248.8127783,248.8127783,0.0213752,[-0.262037037037037],[-0.27685185185185185],[1],[0],[0],[2.123510200000055],['target'],994909,1,2022-09-21_15h40.34.126,Visual search sept 29'22,2022.2.3,59.9599108
109,0,109,0,10,250.9914732,250.9914732,0.0454534,[-0.47962962962962963],[0.2824074074074074],[1],[0],[0],[2.046519800000169],['target'],994909,1,2022-09-21_15h40.34.126,Visual search sept 29'22,2022.2.3,59.9599108
110,0,110,0,5,253.0681193,253.0681193,0.0250316,[0.09814814814814815],[0.08611111111111111],[1],[0],[0],[1.5164217000001372],['target'],994909,1,2022-09-21_15h40.34.126,Visual search sept 29'22,2022.2.3,59.9599108
111,0,111,0,10,254.638726,254.638726,0.0441535,[-0.4324074074074074],[-0.4351851851851852],[1],[0],[0],[1.784487099999751],['target'],994909,1,2022-09-21_15h40.34.126,Visual search sept 29'22,2022.2.3,59.9599108
112,0,112,0,10,256.4745826,256.4745826,0.0455457,[0.4935185185185185],[-0.4398148148148148],[1],[0],[0],[2.264418200000364],['target'],994909,1,2022-09-21_15h40.34.126,Visual search sept 29'22,2022.2.3,59.9599108
113,0,113,0,5,258.769469,258.769469,0.0255122,[-0.45740740740740743],[0.43425925925925923],[1],[0],[0],[1.630363500000385],['target'],994909,1,2022-09-21_15h40.34.126,Visual search sept 29'22,2022.2.3,59.9599108
114,0,114,0,5,260.4255921,260.4255921,0.0211802,[0.19907407407407407],[-0.2101851851851852],[1],[0],[0],[2.0078372999996645],['target'],994909,1,2022-09-21_15h40.34.126,Visual search sept 29'22,2022.2.3,59.9599108
115,0,115,0,5,262.4636862,262.4636862,0.0231682,[0.2537037037037037],[0.2953703703703704],[1],[0],[0],[1.5539027000004353],['target'],994909,1,2022-09-21_15h40.34.126,Visual search sept 29'22,2022.2.3,59.9599108
116,0,116,0,10,264.0765566,264.0765566,0.0479286,[-0.4064814814814815],[0.43333333333333335],[1],[0],[0],[1.8774860000003173],['target'],994909,1,2022-09-21_15h40.34.126,Visual search sept 29'22,2022.2.3,59.9599108
117,0,117,0,10,266.0060565,266.0060565,0.0467096,[-0.3962962962962963],[0.030555555555555555],[1],[0],[0],[2.095785800000158],['target'],994909,1,2022-09-21_15h40.34.126,Visual search sept 29'22,2022.2.3,59.9599108
118,0,118,0,5,268.1298451,268.1298451,0.02185,[-0.2574074074074074],[0.4981481481481482],[1],[0],[0],[2.0362687999995615],['target'],994909,1,2022-09-21_15h40.34.126,Visual search sept 29'22,2022.2.3,59.9599108
119,0,119,0,5,270.1990803,270.1990803,0.0290179,[0.08518518518518518],[-0.4638888888888889],[1],[0],[0],[1.9143786000004184],['target'],994909,1,2022-09-21_15h40.34.126,Visual search sept 29'22,2022.2.3,59.9599108
120,0,120,0,10,272.1696834,272.1696834,0.0463163,[-0.35648148148148145],[0.48055555555555557],[1],[0],[0],[3.747190099999898],['target'],994909,1,2022-09-21_15h40.34.126,Visual search sept 29'22,2022.2.3,59.9599108
121,0,121,0,10,276.0044231,276.0044231,0.0754419,[-0.08796296296296297],[0.2222222222222222],[1],[0],[0],[1.4509600000001228],['target'],994909,1,2022-09-21_15h40.34.126,Visual search sept 29'22,2022.2.3,59.9599108
122,0,122,0,5,277.4779255,277.4779255,0.0225367,[-0.0824074074074074],[-0.09537037037037037],[1],[0],[0],[2.0359050999995816],['target'],994909,1,2022-09-21_15h40.34.126,Visual search sept 29'22,2022.2.3,59.9599108
123,0,123,0,5,279.5396776,279.5396776,0.0218701,[0.26296296296296295],[0.040740740740740744],[1],[0],[0],[1.3230481999999029],['target'],994909,1,2022-09-21_15h40.34.126,Visual search sept 29'22,2022.2.3,59.9599108
124,0,124,0,5,280.8923516,280.8923516,0.0259136,[0.4861111111111111],[0.03796296296296296],[1],[0],[0],[2.134534600000734],['target'],994909,1,2022-09-21_15h40.34.126,Visual search sept 29'22,2022.2.3,59.9599108
125,0,125,0,5,283.0581306,283.0581306,0.0256338,[-0.4388888888888889],[0.4564814814814815],[1],[0],[0],[2.035104099999444],['target'],994909,1,2022-09-21_15h40.34.126,Visual search sept 29'22,2022.2.3,59.9599108
126,0,126,0,10,285.1488234,285.1488234,0.0459972,[-0.1712962962962963],[-0.4546296296296296],[1],[0],[0],[2.2473948999995628],['target'],994909,1,2022-09-21_15h40.34.126,Visual search sept 29'22,2022.2.3,59.9599108
127,0,127,0,5,287.4231258,287.4231258,0.0237593,[-0.26666666666666666],[-0.26666666666666666],[1],[0],[0],[1.5356899000007616],['target'],994909,1,2022-09-21_15h40.34.126,Visual search sept 29'22,2022.2.3,59.9599108
128,0,128,0,10,289.0144954,289.0144954,0.0420821,[-0.2953703703703704],[0.10833333333333334],[1],[0],[0],[1.2506530999999086],['target'],994909,1,2022-09-21_15h40.34.126,Visual search sept 29'22,2022.2.3,59.9599108
129,0,129,0,5,290.2910123,290.2910123,0.0253943,[0.42962962962962964],[0.03981481481481482],[1],[0],[0],[1.616854500000045],['target'],994909,1,2022-09-21_15h40.34.126,Visual search sept 29'22,2022.2.3,59.9599108
130,0,130,0,10,291.9631731,291.9631731,0.0445088,[-0.19907407407407407],[0.06111111111111111],[1],[0],[0],[1.565168299999641],['target'],994909,1,2022-09-21_15h40.34.126,Visual search sept 29'22,2022.2.3,59.9599108
131,0,131,0,5,293.5576313,293.5576313,0.0258428,[0.5064814814814815],[0.2861111111111111],[1],[0],[0],[1.7504723000001832],['target'],994909,1,2022-09-21_15h40.34.126,Visual search sept 29'22,2022.2.3,59.9599108
132,0,132,0,10,295.3729239,295.3729239,0.0506888,[-0.19537037037037036],[0.07592592592592592],[1],[0],[0],[1.2085354999999254],['target'],994909,1,2022-09-21_15h40.34.126,Visual search sept 29'22,2022.2.3,59.9599108
133,0,133,0,5,296.6079426,296.6079426,0.0229636,[-0.0712962962962963],[-0.003703703703703704],[1],[0],[0],[1.6679351000002498],['target'],994909,1,2022-09-21_15h40.34.126,Visual search sept 29'22,2022.2.3,59.9599108
134,0,134,0,10,298.3369548,298.3369548,0.05002,[0.31851851851851853],[-0.4898148148148148],[1],[0],[0],[2.3748167000003377],['target'],994909,1,2022-09-21_15h40.34.126,Visual search sept 29'22,2022.2.3,59.9599108
135,0,135,0,5,300.7371738,300.7371738,0.0224038,[-0.19166666666666668],[0.3685185185185185],[1],[0],[0],[1.3042591000003085],['target'],994909,1,2022-09-21_15h40.34.126,Visual search sept 29'22,2022.2.3,59.9599108
136,0,136,0,10,302.0936217,302.0936217,0.0435923,[-0.34629629629629627],[-0.2611111111111111],[1],[0],[0],[2.247993800000586],['target'],994909,1,2022-09-21_15h40.34.126,Visual search sept 29'22,2022.2.3,59.9599108
137,0,137,0,5,304.371806,304.371806,0.0224628,[0.44537037037037036],[-0.4861111111111111],[1],[0],[0],[2.8356024000004254],['target'],994909,1,2022-09-21_15h40.34.126,Visual search sept 29'22,2022.2.3,59.9599108
138,0,138,0,10,307.2630999,307.2630999,0.0491281,[-0.3611111111111111],[0.2898148148148148],[1],[0],[0],[2.1946458000002167],['target'],994909,1,2022-09-21_15h40.34.126,Visual search sept 29'22,2022.2.3,59.9599108
139,0,139,0,10,309.5101374,309.5101374,0.0425512,[0.46574074074074073],[0.030555555555555555],[1],[0],[0],[1.585012600000482],['target'],994909,1,2022-09-21_15h40.34.126,Visual search sept 29'22,2022.2.3,59.9599108
140,0,140,0,10,311.1432972,311.1432972,0.045187,[0.34629629629629627],[-0.10277777777777777],[1],[0],[0],[1.565650800000185],['target'],994909,1,2022-09-21_15h40.34.126,Visual search sept 29'22,2022.2.3,59.9599108
141,0,141,0,10,312.7637934,312.7637934,0.0451719,[0.375],[0.027777777777777776],[1],[0],[0],[2.059671900000467],['target'],994909,1,2022-09-21_15h40.34.126,Visual search sept 29'22,2022.2.3,59.9599108
142,0,142,0,10,314.8746659,314.8746659,0.0443366,[0.09259259259259259],[0.06666666666666667],[1],[0],[0],[1.6840688000002046],['target'],994909,1,2022-09-21_15h40.34.126,Visual search sept 29'22,2022.2.3,59.9599108
143,0,143,0,5,316.5840165,316.5840165,0.0251824,[0.21203703703703702],[-0.2388888888888889],[1],[0],[0],[1.8849975000002814],['target'],994909,1,2022-09-21_15h40.34.126,Visual search sept 29'22,2022.2.3,59.9599108
144,0,144,0,10,318.5247382,318.5247382,0.0461872,[-0.3074074074074074],[-0.24074074074074073],[1],[0],[0],[1.7963909000000058],['target'],994909,1,2022-09-21_15h40.34.126,Visual search sept 29'22,2022.2.3,59.9599108
145,0,145,0,10,320.3757373,320.3757373,0.0442151,[-0.337037037037037],[-0.44722222222222224],[1],[0],[0],[1.948914099999456],['target'],994909,1,2022-09-21_15h40.34.126,Visual search sept 29'22,2022.2.3,59.9599108
146,0,146,0,5,322.3467879,322.3467879,0.0233072,[0.35555555555555557],[-0.4861111111111111],[1],[0],[0],[2.470177500000318],['target'],994909,1,2022-09-21_15h40.34.126,Visual search sept 29'22,2022.2.3,59.9599108
147,0,147,0,10,324.877754,324.877754,0.0464216,[0.12685185185185185],[0.3990740740740741],[1],[0],[0],[1.9804795000000013],['target'],994909,1,2022-09-21_15h40.34.126,Visual search sept 29'22,2022.2.3,59.9599108
148,0,148,0,5,326.9575961,326.9575961,0.1020045,[0.13240740740740742],[0.09074074074074075],[1],[0],[0],[1.625927000000047],['target'],994909,1,2022-09-21_15h40.34.126,Visual search sept 29'22,2022.2.3,59.9599108
149,0,149,0,10,328.6382347,328.6382347,0.0402385,[0.35],[0.18518518518518517],[1],[0],[0],[1.6022820999996839],['target'],994909,1,2022-09-21_15h40.34.126,Visual search sept 29'22,2022.2.3,59.9599108
150,0,150,0,10,330.2870287,330.2870287,0.0445543,[-0.3111111111111111],[0.1824074074074074],[1],[0],[0],[1.5806166000002122],['target'],994909,1,2022-09-21_15h40.34.126,Visual search sept 29'22,2022.2.3,59.9599108
151,0,151,0,5,331.8970384,331.8970384,0.0225305,[0.43703703703703706],[0.10648148148148148],[1],[0],[0],[2.2204946000001655],['target'],994909,1,2022-09-21_15h40.34.126,Visual search sept 29'22,2022.2.3,59.9599108
152,0,152,0,5,334.1425432,334.1425432,0.0225153,[-0.412962962962963],[-0.4601851851851852],[1],[0],[0],[2.354649199999585],['target'],994909,1,2022-09-21_15h40.34.126,Visual search sept 29'22,2022.2.3,59.9599108
153,0,153,0,5,336.5283786,336.5283786,0.0216897,[-0.35648148148148145],[0.4287037037037037],[1],[0],[0],[1.6718688000000839],['target'],994909,1,2022-09-21_15h40.34.126,Visual search sept 29'22,2022.2.3,59.9599108
154,0,154,0,5,338.2296285,338.2296285,0.0235391,[0.17222222222222222],[-0.3592592592592593],[1],[0],[0],[2.3193633999999292],['target'],994909,1,2022-09-21_15h40.34.126,Visual search sept 29'22,2022.2.3,59.9599108
155,0,155,0,5,340.5783208,340.5783208,0.0252932,[0.45740740740740743],[0.03888888888888889],[1],[0],[0],[1.7012528999994174],['target'],994909,1,2022-09-21_15h40.34.126,Visual search sept 29'22,2022.2.3,59.9599108
156,0,156,0,10,342.3354384,342.3354384,0.0459895,[0.27685185185185185],[-0.2518518518518518],[1],[0],[0],[1.931646300000466],['target'],994909,1,2022-09-21_15h40.34.126,Visual search sept 29'22,2022.2.3,59.9599108
157,0,157,0,10,344.3226615,344.3226615,0.0459805,[0.20277777777777778],[0.20185185185185187],[1],[0],[0],[1.2951080000002548],['target'],994909,1,2022-09-21_15h40.34.126,Visual search sept 29'22,2022.2.3,59.9599108
158,0,158,0,5,345.6417199,345.6417199,0.0228546,[-0.23055555555555557],[0.11296296296296296],[1],[0],[0],[1.8066596999997273],['target'],994909,1,2022-09-21_15h40.34.126,Visual search sept 29'22,2022.2.3,59.9599108
159,0,159,0,5,347.4760502,347.4760502,0.0221236,[0.2953703703703704],[-0.023148148148148147],[1],[0],[0],[1.5707458999995652],['target'],994909,1,2022-09-21_15h40.34.126,Visual search sept 29'22,2022.2.3,59.9599108
160,0,160,0,10,349.1041488,349.1041488,0.048409,[0.05648148148148148],[0.42962962962962964],[1],[0],[0],[1.6439259999997375],['target'],994909,1,2022-09-21_15h40.34.126,Visual search sept 29'22,2022.2.3,59.9599108
161,0,161,0,5,350.7760114,350.7760114,0.0222695,[0.3],[0.20277777777777778],[1],[0],[0],[1.4703619000001709],['target'],994909,1,2022-09-21_15h40.34.126,Visual search sept 29'22,2022.2.3,59.9599108
162,0,162,0,10,352.2984845,352.2984845,0.0465281,[0.10925925925925926],[0.35185185185185186],[1],[0],[0],[1.5313286000000517],['target'],994909,1,2022-09-21_15h40.34.126,Visual search sept 29'22,2022.2.3,59.9599108
163,0,163,0,10,353.8881782,353.8881782,0.0466141,[0.44537037037037036],[0.275],[1],[0],[0],[1.8311084999995728],['target'],994909,1,2022-09-21_15h40.34.126,Visual search sept 29'22,2022.2.3,59.9599108
164,0,164,0,10,355.7662792,355.7662792,0.0463694,[0.2916666666666667],[-0.044444444444444446],[1],[0],[0],[1.664150999999947],['target'],994909,1,2022-09-21_15h40.34.126,Visual search sept 29'22,2022.2.3,59.9599108
165,0,165,0,10,357.4857542,357.4857542,0.0459533,[0.062037037037037036],[0.4148148148148148],[1],[0],[0],[1.5457296000004135],['target'],994909,1,2022-09-21_15h40.34.126,Visual search sept 29'22,2022.2.3,59.9599108
166,0,166,0,5,359.0559834,359.0559834,0.0249589,[-0.025925925925925925],[0.23425925925925925],[1],[0],[0],[1.636453099999926],['target'],994909,1,2022-09-21_15h40.34.126,Visual search sept 29'22,2022.2.3,59.9599108
167,0,167,0,10,360.7508365,360.7508365,0.0443464,[-0.09537037037037037],[-0.4685185185185185],[1],[0],[0],[2.2990962999992917],['target'],994909,1,2022-09-21_15h40.34.126,Visual search sept 29'22,2022.2.3,59.9599108
168,0,168,0,5,363.0719532,363.0719532,0.021877,[-0.462037037037037],[0.1537037037037037],[1],[0],[0],[2.570738400000664],['target'],994909,1,2022-09-21_15h40.34.126,Visual search sept 29'22,2022.2.3,59.9599108
169,0,169,0,5,365.6731515,365.6731515,0.0216344,[0.44814814814814813],[-0.018518518518518517],[1],[0],[0],[2.154137300000002],['target'],994909,1,2022-09-21_15h40.34.126,Visual search sept 29'22,2022.2.3,59.9599108
170,0,170,0,5,367.8556419,367.8556419,0.0247653,[0.31851851851851853],[0.3537037037037037],[1],[0],[0],[2.5010301000002073],['target'],994909,1,2022-09-21_15h40.34.126,Visual search sept 29'22,2022.2.3,59.9599108
171,0,171,0,5,370.3837139,370.3837139,0.0225046,[-0.030555555555555555],[0.10092592592592593],[1],[0],[0],[1.5237881000002744],['target'],994909,1,2022-09-21_15h40.34.126,Visual search sept 29'22,2022.2.3,59.9599108
172,0,172,0,10,371.9610266,371.9610266,0.0438847,[-0.19166666666666668],[-0.14074074074074075],[1],[0],[0],[1.712894299999789],['target'],994909,1,2022-09-21_15h40.34.126,Visual search sept 29'22,2022.2.3,59.9599108
173,0,173,0,5,373.7033605,373.7033605,0.022291,[0.16944444444444445],[0.4648148148148148],[1],[0],[0],[2.35422219999964],['target'],994909,1,2022-09-21_15h40.34.126,Visual search sept 29'22,2022.2.3,59.9599108
174,0,174,0,5,376.0938537,376.0938537,0.0281471,[-0.3648148148148148],[0.45740740740740743],[1],[0],[0],[2.2098234000004595],['target'],994909,1,2022-09-21_15h40.34.126,Visual search sept 29'22,2022.2.3,59.9599108
175,0,175,0,5,378.3390991,378.3390991,0.0277334,[0.2212962962962963],[-0.42962962962962964],[1],[0],[0],[1.9312204999996538],['target'],994909,1,2022-09-21_15h40.34.126,Visual search sept 29'22,2022.2.3,59.9599108
176,0,176,0,5,380.3016018,380.3016018,0.0228897,[0.11944444444444445],[-0.1962962962962963],[1],[0],[0],[1.6542074999997567],['target'],994909,1,2022-09-21_15h40.34.126,Visual search sept 29'22,2022.2.3,59.9599108
177,0,177,0,5,381.9863544,381.9863544,0.026419,[0.049074074074074076],[0.4898148148148148],[1],[0],[0],[2.117768199999773],['target'],994909,1,2022-09-21_15h40.34.126,Visual search sept 29'22,2022.2.3,59.9599108
178,0,178,0,10,384.1589889,384.1589889,0.0456222,[0.2462962962962963],[-0.20555555555555555],[1],[0],[0],[1.8135182999994868],['target'],994909,1,2022-09-21_15h40.34.126,Visual search sept 29'22,2022.2.3,59.9599108
179,0,179,0,5,386.0005099,386.0005099,0.0213881,[0.04537037037037037],[-0.2175925925925926],[1],[0],[0],[2.4876239000004716],['target'],994909,1,2022-09-21_15h40.34.126,Visual search sept 29'22,2022.2.3,59.9599108
180,0,180,0,5,388.5180501,388.5180501,0.0256884,[-0.14537037037037037],[-0.28425925925925927],[1],[0],[0],[1.8333191000001534],['target'],994909,1,2022-09-21_15h40.34.126,Visual search sept 29'22,2022.2.3,59.9599108
181,0,181,0,10,390.4030006,390.4030006,0.0397799,[-0.2962962962962963],[0.22685185185185186],[1],[0],[0],[1.3044437999997172],['target'],994909,1,2022-09-21_15h40.34.126,Visual search sept 29'22,2022.2.3,59.9599108
182,0,182,0,5,391.733478,391.733478,0.0222248,[0.38425925925925924],[0.3148148148148148],[1],[0],[0],[1.6867076999997153],['target'],994909,1,2022-09-21_15h40.34.126,Visual search sept 29'22,2022.2.3,59.9599108
183,0,183,0,5,393.4461722,393.4461722,0.0234968,[-0.37777777777777777],[-0.17407407407407408],[1],[0],[0],[1.403621500000554],['target'],994909,1,2022-09-21_15h40.34.126,Visual search sept 29'22,2022.2.3,59.9599108
184,0,184,0,10,394.9094663,394.9094663,0.0471574,[-0.3],[0.2861111111111111],[1],[0],[0],[1.4804800000001705],['target'],994909,1,2022-09-21_15h40.34.126,Visual search sept 29'22,2022.2.3,59.9599108
185,0,185,0,5,396.4117423,396.4117423,0.0231433,[-0.2101851851851852],[-0.009259259259259259],[1],[0],[0],[1.1733614999993733],['target'],994909,1,2022-09-21_15h40.34.126,Visual search sept 29'22,2022.2.3,59.9599108
186,0,186,0,10,397.6466665,397.6466665,0.0477641,[-0.3398148148148148],[0.15462962962962962],[1],[0],[0],[1.3778298000006544],['target'],994909,1,2022-09-21_15h40.34.126,Visual search sept 29'22,2022.2.3,59.9599108
187,0,187,0,10,399.0737812,399.0737812,0.0436754,[0.22314814814814815],[-0.18611111111111112],[1],[0],[0],[2.1682536999996955],['target'],994909,1,2022-09-21_15h40.34.126,Visual search sept 29'22,2022.2.3,59.9599108
188,0,188,0,5,401.2630289,401.2630289,0.0221875,[-0.2212962962962963],[0.08796296296296297],[1],[0],[0],[1.571402799999305],['target'],994909,1,2022-09-21_15h40.34.126,Visual search sept 29'22,2022.2.3,59.9599108
189,0,189,0,5,402.8628378,402.8628378,0.0218845,[0.275],[-0.32314814814814813],[1],[0],[0],[2.1211794999999256],['target'],994909,1,2022-09-21_15h40.34.126,Visual search sept 29'22,2022.2.3,59.9599108
190,0,190,0,10,405.0394272,405.0394272,0.0468403,[0.2037037037037037],[-0.4101851851851852],[1],[0],[0],[2.4442275999999765],['target'],994909,1,2022-09-21_15h40.34.126,Visual search sept 29'22,2022.2.3,59.9599108
191,0,191,0,5,407.5128437,407.5128437,0.0258984,[0.3907407407407407],[0.47962962962962963],[1],[0],[0],[2.24960160000046],['target'],994909,1,2022-09-21_15h40.34.126,Visual search sept 29'22,2022.2.3,59.9599108
192,0,192,0,10,409.8187585,409.8187585,0.0446197,[-0.16111111111111112],[0.003703703703703704],[1],[0],[0],[3.22913410000001],['target'],994909,1,2022-09-21_15h40.34.126,Visual search sept 29'22,2022.2.3,59.9599108
193,0,193,0,5,413.0807137,413.0807137,0.0267058,[-0.35462962962962963],[0.34444444444444444],[1],[0],[0],[1.9153571000006195],['target'],994909,1,2022-09-21_15h40.34.126,Visual search sept 29'22,2022.2.3,59.9599108
194,0,194,0,10,415.0515713,415.0515713,0.0456938,[0.2462962962962963],[-0.05277777777777778],[1],[0],[0],[2.0621240999998918],['target'],994909,1,2022-09-21_15h40.34.126,Visual search sept 29'22,2022.2.3,59.9599108
195,0,195,0,10,417.1699397,417.1699397,0.0476615,[-0.41574074074074074],[-0.26851851851851855],[1],[0],[0],[1.9790857000007236],['target'],994909,1,2022-09-21_15h40.34.126,Visual search sept 29'22,2022.2.3,59.9599108
196,0,196,0,10,419.2053627,419.2053627,0.0491986,[-0.13333333333333333],[-0.17685185185185184],[1],[0],[0],[1.9594372999999905],['target'],994909,1,2022-09-21_15h40.34.126,Visual search sept 29'22,2022.2.3,59.9599108
197,0,197,0,10,421.2204021,421.2204021,0.0477666,[-0.010185185185185186],[0.01574074074074074],[1],[0],[0],[3.8958716999995886],['target'],994909,1,2022-09-21_15h40.34.126,Visual search sept 29'22,2022.2.3,59.9599108
198,0,198,0,5,425.142064,425.142064,0.0233235,[0.23333333333333334],[0.06018518518518518],[1],[0],[0],[1.686817300000257],['target'],994909,1,2022-09-21_15h40.34.126,Visual search sept 29'22,2022.2.3,59.9599108
199,0,199,0,10,426.883096,426.883096,0.047017,[-0.33425925925925926],[0.18333333333333332],[1],[0],[0],[1.8458693000002313],['target'],994909,1,2022-09-21_15h40.34.126,Visual search sept 29'22,2022.2.3,59.9599108
