trials.thisRepN,trials.thisTrialN,trials.thisN,trials.thisIndex,num_distr,fixation.started,target.started,mouse.started,mouse.x,mouse.y,mouse.leftButton,mouse.midButton,mouse.rightButton,mouse.time,mouse.clicked_name,participant,session,date,expName,psychopyVersion,frameRate
0,0,0,0,10,17.2827029,17.2827029,0.0770642,[-0.020370370370370372],[-0.49907407407407406],[1],[0],[0],[1.9739380000000892],['target'],75075,1,2022-09-21_15h19.57.535,Visual search sept 29'22,2022.2.3,60.04740142
1,0,1,0,5,19.2709122,19.2709122,0.0236727,[-0.1037037037037037],[-0.37592592592592594],[1],[0],[0],[1.381394900000032],[],75075,1,2022-09-21_15h19.57.535,Visual search sept 29'22,2022.2.3,60.04740142
2,0,2,0,10,21.0943073,21.0943073,0.4331225,[-0.13425925925925927],[-0.3574074074074074],[1],[0],[0],[0.14402210000025661],[],75075,1,2022-09-21_15h19.57.535,Visual search sept 29'22,2022.2.3,60.04740142
3,0,3,0,10,21.2988496,21.2988496,0.0521294,[-0.022222222222222223],[0.15833333333333333],[1],[0],[0],[1.174272000000201],['target'],75075,1,2022-09-21_15h19.57.535,Visual search sept 29'22,2022.2.3,60.04740142
4,0,4,0,5,22.50137,22.50137,0.0234356,[-0.06296296296296296],[0.27037037037037037],[1],[0],[0],[1.31801889999997],['target'],75075,1,2022-09-21_15h19.57.535,Visual search sept 29'22,2022.2.3,60.04740142
5,0,5,0,5,23.8479309,23.8479309,0.0256035,[-0.1287037037037037],[0.34629629629629627],[1],[0],[0],[1.4354631999999583],[],75075,1,2022-09-21_15h19.57.535,Visual search sept 29'22,2022.2.3,60.04740142
6,0,6,0,5,25.3176656,25.3176656,0.0268463,[0.4740740740740741],[0.25555555555555554],[1],[0],[0],[1.3981048000000555],['target'],75075,1,2022-09-21_15h19.57.535,Visual search sept 29'22,2022.2.3,60.04740142
7,0,7,0,10,26.7708935,26.7708935,0.0432045,[-0.32037037037037036],[-0.16018518518518518],[1],[0],[0],[2.2005950999996458],[],75075,1,2022-09-21_15h19.57.535,Visual search sept 29'22,2022.2.3,60.04740142
8,0,8,0,10,29.021323,29.021323,0.0462656,[-0.29444444444444445],[-0.12222222222222222],[1],[0],[0],[1.1131812999997237],['target'],75075,1,2022-09-21_15h19.57.535,Visual search sept 29'22,2022.2.3,60.04740142
9,0,9,0,5,30.1673574,30.1673574,0.0270688,[0.30092592592592593],[-0.337037037037037],[1],[0],[0],[2.715415000000121],['target'],75075,1,2022-09-21_15h19.57.535,Visual search sept 29'22,2022.2.3,60.04740142
10,0,10,0,10,32.9388886,32.9388886,0.0470982,[0.06574074074074074],[0.15462962962962962],[1],[0],[0],[1.761717000000317],['target'],75075,1,2022-09-21_15h19.57.535,Visual search sept 29'22,2022.2.3,60.04740142
11,0,11,0,5,34.7304026,34.7304026,0.0235665,[-0.32222222222222224],[-0.007407407407407408],[1],[0],[0],[2.003267600000072],['target'],75075,1,2022-09-21_15h19.57.535,Visual search sept 29'22,2022.2.3,60.04740142
12,0,12,0,5,36.7643165,36.7643165,0.0244,[0.03888888888888889],[-0.42592592592592593],[1],[0],[0],[2.650419800000236],['target'],75075,1,2022-09-21_15h19.57.535,Visual search sept 29'22,2022.2.3,60.04740142
13,0,13,0,10,39.4678195,39.4678195,0.0419997,[-0.04722222222222222],[0.09351851851851851],[1],[0],[0],[2.3525399000000107],['target'],75075,1,2022-09-21_15h19.57.535,Visual search sept 29'22,2022.2.3,60.04740142
14,0,14,0,5,41.8456553,41.8456553,0.0258134,[-0.02962962962962963],[-0.26851851851851855],[1],[0],[0],[2.551078800000141],['target'],75075,1,2022-09-21_15h19.57.535,Visual search sept 29'22,2022.2.3,60.04740142
15,0,15,0,10,44.4537482,44.4537482,0.0481483,[0.32592592592592595],[-0.3861111111111111],[1],[0],[0],[2.5118993000000955],['target'],75075,1,2022-09-21_15h19.57.535,Visual search sept 29'22,2022.2.3,60.04740142
16,0,16,0,10,47.0194385,47.0194385,0.0453704,[-0.33240740740740743],[-0.05925925925925926],[1],[0],[0],[1.7304691000003913],['target'],75075,1,2022-09-21_15h19.57.535,Visual search sept 29'22,2022.2.3,60.04740142
17,0,17,0,5,48.7760887,48.7760887,0.0245041,[-0.42777777777777776],[0.2388888888888889],[1],[0],[0],[1.7016598999998678],['target'],75075,1,2022-09-21_15h19.57.535,Visual search sept 29'22,2022.2.3,60.04740142
18,0,18,0,5,50.5171871,50.5171871,0.0350145,[-0.07314814814814814],[0.3712962962962963],[1],[0],[0],[1.9754406000001836],['target'],75075,1,2022-09-21_15h19.57.535,Visual search sept 29'22,2022.2.3,60.04740142
19,0,19,0,5,52.5164358,52.5164358,0.0187405,[-0.18611111111111112],[0.2953703703703704],[1],[0],[0],[1.541685900000175],['target'],75075,1,2022-09-21_15h19.57.535,Visual search sept 29'22,2022.2.3,60.04740142
20,0,20,0,10,54.1147666,54.1147666,0.0449406,[-0.3962962962962963],[0.08148148148148149],[1],[0],[0],[1.6640302000000702],['target'],75075,1,2022-09-21_15h19.57.535,Visual search sept 29'22,2022.2.3,60.04740142
21,0,21,0,10,55.8370106,55.8370106,0.0493824,[0.30648148148148147],[0.12685185185185185],[1],[0],[0],[2.7270676000002823],['target'],75075,1,2022-09-21_15h19.57.535,Visual search sept 29'22,2022.2.3,60.04740142
22,0,22,0,5,58.5928783,58.5928783,0.0255287,[-0.046296296296296294],[-0.13148148148148148],[1],[0],[0],[2.1522141999998894],['target'],75075,1,2022-09-21_15h19.57.535,Visual search sept 29'22,2022.2.3,60.04740142
23,0,23,0,10,60.8000532,60.8000532,0.0471307,[-0.2722222222222222],[0.5],[1],[0],[0],[2.7790697000000364],['target'],75075,1,2022-09-21_15h19.57.535,Visual search sept 29'22,2022.2.3,60.04740142
24,0,24,0,5,63.6082175,63.6082175,0.0288618,[-0.3962962962962963],[0.32037037037037036],[1],[0],[0],[1.4990974000002097],['target'],75075,1,2022-09-21_15h19.57.535,Visual search sept 29'22,2022.2.3,60.04740142
25,0,25,0,10,65.1606801,65.1606801,0.0436717,[-0.0824074074074074],[-0.45],[1],[0],[0],[2.6510427999996864],['target'],75075,1,2022-09-21_15h19.57.535,Visual search sept 29'22,2022.2.3,60.04740142
26,0,26,0,5,67.8374607,67.8374607,0.0245604,[0.2351851851851852],[0.2638888888888889],[1],[0],[0],[1.4847018999998909],['target'],75075,1,2022-09-21_15h19.57.535,Visual search sept 29'22,2022.2.3,60.04740142
27,0,27,0,5,69.352776,69.352776,0.0214824,[0.2111111111111111],[0.25092592592592594],[1],[0],[0],[1.2377532999998948],['target'],75075,1,2022-09-21_15h19.57.535,Visual search sept 29'22,2022.2.3,60.04740142
28,0,28,0,5,70.6202599,70.6202599,0.0213677,[0.09259259259259259],[0.2796296296296296],[1],[0],[0],[1.0872804000000542],['target'],75075,1,2022-09-21_15h19.57.535,Visual search sept 29'22,2022.2.3,60.04740142
29,0,29,0,10,71.7603272,71.7603272,0.0420121,[0.49074074074074076],[0.19537037037037036],[1],[0],[0],[2.451372900000024],[],75075,1,2022-09-21_15h19.57.535,Visual search sept 29'22,2022.2.3,60.04740142
30,0,30,0,5,74.2326167,74.2326167,0.0224881,[-0.028703703703703703],[0.053703703703703705],[1],[0],[0],[1.9057073000003584],[],75075,1,2022-09-21_15h19.57.535,Visual search sept 29'22,2022.2.3,60.04740142
31,0,31,0,5,76.1701252,76.1701252,0.0218102,[0.1962962962962963],[-0.44722222222222224],[1],[0],[0],[1.9046355999998923],['target'],75075,1,2022-09-21_15h19.57.535,Visual search sept 29'22,2022.2.3,60.04740142
32,0,32,0,10,78.1268921,78.1268921,0.046136,[0.03148148148148148],[-0.05740740740740741],[1],[0],[0],[1.8964341999999306],['target'],75075,1,2022-09-21_15h19.57.535,Visual search sept 29'22,2022.2.3,60.04740142
33,0,33,0,10,80.0793151,80.0793151,0.0481235,[-0.262037037037037],[-0.21296296296296297],[1],[0],[0],[1.7606899000002159],['target'],75075,1,2022-09-21_15h19.57.535,Visual search sept 29'22,2022.2.3,60.04740142
34,0,34,0,5,81.8680296,81.8680296,0.0229256,[-0.4185185185185185],[-0.18055555555555555],[1],[0],[0],[1.7195969999997942],['target'],75075,1,2022-09-21_15h19.57.535,Visual search sept 29'22,2022.2.3,60.04740142
35,0,35,0,10,83.6416169,83.6416169,0.0435254,[0.28425925925925927],[-0.09259259259259259],[1],[0],[0],[2.0512353999997686],[],75075,1,2022-09-21_15h19.57.535,Visual search sept 29'22,2022.2.3,60.04740142
36,0,36,0,10,85.7383633,85.7383633,0.0413954,[-0.4564814814814815],[0.15833333333333333],[1],[0],[0],[2.151020100000096],[],75075,1,2022-09-21_15h19.57.535,Visual search sept 29'22,2022.2.3,60.04740142
37,0,37,0,5,87.9178903,87.9178903,0.0272469,[-0.010185185185185186],[0.4425925925925926],[1],[0],[0],[1.666420300000027],['target'],75075,1,2022-09-21_15h19.57.535,Visual search sept 29'22,2022.2.3,60.04740142
38,0,38,0,10,89.6458211,89.6458211,0.0479177,[-0.08981481481481482],[-0.32037037037037036],[1],[0],[0],[1.7451881000001777],['target'],75075,1,2022-09-21_15h19.57.535,Visual search sept 29'22,2022.2.3,60.04740142
39,0,39,0,10,91.445744,91.445744,0.0479961,[0.13796296296296295],[0.4361111111111111],[1],[0],[0],[2.2129480999997213],['target'],75075,1,2022-09-21_15h19.57.535,Visual search sept 29'22,2022.2.3,60.04740142
40,0,40,0,10,93.7152708,93.7152708,0.0530873,[0.21851851851851853],[-0.06388888888888888],[1],[0],[0],[2.1416529999996783],['target'],75075,1,2022-09-21_15h19.57.535,Visual search sept 29'22,2022.2.3,60.04740142
41,0,41,0,5,95.8800244,95.8800244,0.0236532,[0.4824074074074074],[-0.025925925925925925],[1],[0],[0],[1.6861730999999054],['target'],75075,1,2022-09-21_15h19.57.535,Visual search sept 29'22,2022.2.3,60.04740142
42,0,42,0,10,97.6245639,97.6245639,0.0466626,[0.12314814814814815],[-0.3388888888888889],[1],[0],[0],[1.9782230999999229],['target'],75075,1,2022-09-21_15h19.57.535,Visual search sept 29'22,2022.2.3,60.04740142
43,0,43,0,10,99.6554562,99.6554562,0.0476263,[0.17777777777777778],[0.10277777777777777],[1],[0],[0],[1.5621952999999849],['target'],75075,1,2022-09-21_15h19.57.535,Visual search sept 29'22,2022.2.3,60.04740142
44,0,44,0,5,101.245165,101.245165,0.0244322,[0.30277777777777776],[-0.4425925925925926],[1],[0],[0],[1.219347199999902],['target'],75075,1,2022-09-21_15h19.57.535,Visual search sept 29'22,2022.2.3,60.04740142
45,0,45,0,10,102.5182224,102.5182224,0.0434644,[0.47962962962962963],[-0.14537037037037037],[1],[0],[0],[2.8318516999997883],['target'],75075,1,2022-09-21_15h19.57.535,Visual search sept 29'22,2022.2.3,60.04740142
46,0,46,0,5,105.3834591,105.3834591,0.0306947,[-0.38055555555555554],[-0.3972222222222222],[1],[0],[0],[1.9958256999998412],[],75075,1,2022-09-21_15h19.57.535,Visual search sept 29'22,2022.2.3,60.04740142
47,0,47,0,10,107.4386165,107.4386165,0.0452055,[-0.11944444444444445],[-0.30277777777777776],[1],[0],[0],[2.3985325000003286],['target'],75075,1,2022-09-21_15h19.57.535,Visual search sept 29'22,2022.2.3,60.04740142
48,0,48,0,10,109.8744972,109.8744972,0.0325141,[0.15092592592592594],[0.5],[1],[0],[0],[1.8757387999999082],['target'],75075,1,2022-09-21_15h19.57.535,Visual search sept 29'22,2022.2.3,60.04740142
49,0,49,0,5,111.7749716,111.7749716,0.0235237,[-0.11296296296296296],[-0.26944444444444443],[1],[0],[0],[2.1044934000001376],['target'],75075,1,2022-09-21_15h19.57.535,Visual search sept 29'22,2022.2.3,60.04740142
50,0,50,0,10,113.9331039,113.9331039,0.0416567,[0.25277777777777777],[-0.017592592592592594],[1],[0],[0],[2.551764700000149],['target'],75075,1,2022-09-21_15h19.57.535,Visual search sept 29'22,2022.2.3,60.04740142
51,0,51,0,5,116.5129907,116.5129907,0.0289459,[0.35185185185185186],[0.2212962962962963],[1],[0],[0],[1.4646457000003466],['target'],75075,1,2022-09-21_15h19.57.535,Visual search sept 29'22,2022.2.3,60.04740142
52,0,52,0,10,118.0335423,118.0335423,0.0427983,[-0.24814814814814815],[-0.275],[1],[0],[0],[1.7511430000004111],['target'],75075,1,2022-09-21_15h19.57.535,Visual search sept 29'22,2022.2.3,60.04740142
53,0,53,0,5,119.8062836,119.8062836,0.0224025,[0.17314814814814813],[-0.4703703703703704],[1],[0],[0],[1.9215710000003128],['target'],75075,1,2022-09-21_15h19.57.535,Visual search sept 29'22,2022.2.3,60.04740142
54,0,54,0,10,121.7826303,121.7826303,0.0458069,[0.06296296296296296],[0.42962962962962964],[1],[0],[0],[1.7470232000000578],[],75075,1,2022-09-21_15h19.57.535,Visual search sept 29'22,2022.2.3,60.04740142
55,0,55,0,10,123.58096,123.58096,0.0446215,[-0.40925925925925927],[0.040740740740740744],[1],[0],[0],[2.0317761999999675],['target'],75075,1,2022-09-21_15h19.57.535,Visual search sept 29'22,2022.2.3,60.04740142
56,0,56,0,10,125.6686725,125.6686725,0.0458791,[0.44907407407407407],[0.22314814814814815],[1],[0],[0],[2.0125992000002952],['target'],75075,1,2022-09-21_15h19.57.535,Visual search sept 29'22,2022.2.3,60.04740142
57,0,57,0,5,127.7061475,127.7061475,0.0245856,[0.33055555555555555],[0.10092592592592593],[1],[0],[0],[1.2853919999997743],['target'],75075,1,2022-09-21_15h19.57.535,Visual search sept 29'22,2022.2.3,60.04740142
58,0,58,0,5,129.022871,129.022871,0.0218979,[-0.1037037037037037],[-0.33796296296296297],[1],[0],[0],[1.7542515999998614],[],75075,1,2022-09-21_15h19.57.535,Visual search sept 29'22,2022.2.3,60.04740142
59,0,59,0,10,130.8287684,130.8287684,0.0438317,[-0.27037037037037037],[-0.262037037037037],[1],[0],[0],[2.3177310000000944],['target'],75075,1,2022-09-21_15h19.57.535,Visual search sept 29'22,2022.2.3,60.04740142
60,0,60,0,10,133.1928381,133.1928381,0.04,[0.21203703703703702],[-0.45925925925925926],[1],[0],[0],[2.354342600000109],[],75075,1,2022-09-21_15h19.57.535,Visual search sept 29'22,2022.2.3,60.04740142
61,0,61,0,5,135.5683005,135.5683005,0.0217948,[0.3675925925925926],[0.2657407407407407],[1],[0],[0],[2.255533600000035],['target'],75075,1,2022-09-21_15h19.57.535,Visual search sept 29'22,2022.2.3,60.04740142
62,0,62,0,5,137.8509621,137.8509621,0.0215372,[-0.2824074074074074],[0.21666666666666667],[1],[0],[0],[1.739900800000214],[],75075,1,2022-09-21_15h19.57.535,Visual search sept 29'22,2022.2.3,60.04740142
63,0,63,0,10,139.6429623,139.6429623,0.0435762,[-0.20833333333333334],[-0.16666666666666666],[1],[0],[0],[2.632273200000327],['target'],75075,1,2022-09-21_15h19.57.535,Visual search sept 29'22,2022.2.3,60.04740142
64,0,64,0,10,142.3247689,142.3247689,0.0430108,[-0.24351851851851852],[0.3351851851851852],[1],[0],[0],[1.835048800000095],['target'],75075,1,2022-09-21_15h19.57.535,Visual search sept 29'22,2022.2.3,60.04740142
65,0,65,0,5,144.1864585,144.1864585,0.0253668,[-0.4425925925925926],[-0.34444444444444444],[1],[0],[0],[1.7676910000000134],['target'],75075,1,2022-09-21_15h19.57.535,Visual search sept 29'22,2022.2.3,60.04740142
66,0,66,0,10,146.0040184,146.0040184,0.0392428,[0.11944444444444445],[-0.35185185185185186],[1],[0],[0],[1.5722006000000874],['target'],75075,1,2022-09-21_15h19.57.535,Visual search sept 29'22,2022.2.3,60.04740142
67,0,67,0,10,147.6250296,147.6250296,0.0443283,[0.4842592592592593],[-0.03425925925925926],[1],[0],[0],[2.1647877999998855],['target'],75075,1,2022-09-21_15h19.57.535,Visual search sept 29'22,2022.2.3,60.04740142
68,0,68,0,5,149.8156773,149.8156773,0.022929,[0.07592592592592592],[-0.1574074074074074],[1],[0],[0],[1.3889420999998947],['target'],75075,1,2022-09-21_15h19.57.535,Visual search sept 29'22,2022.2.3,60.04740142
69,0,69,0,5,151.2358023,151.2358023,0.0227337,[0.19722222222222222],[0.3287037037037037],[1],[0],[0],[1.5034445000001142],['target'],75075,1,2022-09-21_15h19.57.535,Visual search sept 29'22,2022.2.3,60.04740142
70,0,70,0,10,152.792847,152.792847,0.0478298,[0.29814814814814816],[0.20185185185185187],[1],[0],[0],[1.479223599999841],[],75075,1,2022-09-21_15h19.57.535,Visual search sept 29'22,2022.2.3,60.04740142
71,0,71,0,10,154.3225818,154.3225818,0.0447304,[0.35185185185185186],[-0.17685185185185184],[1],[0],[0],[1.6996679999997468],['target'],75075,1,2022-09-21_15h19.57.535,Visual search sept 29'22,2022.2.3,60.04740142
72,0,72,0,10,156.0738276,156.0738276,0.0449727,[-0.42407407407407405],[-0.3],[1],[0],[0],[2.1482436000001144],[],75075,1,2022-09-21_15h19.57.535,Visual search sept 29'22,2022.2.3,60.04740142
73,0,73,0,5,158.2479234,158.2479234,0.022608,[-0.2351851851851852],[0.48333333333333334],[1],[0],[0],[1.8710246000000552],[],75075,1,2022-09-21_15h19.57.535,Visual search sept 29'22,2022.2.3,60.04740142
74,0,74,0,5,160.1465649,160.1465649,0.0227609,[-0.12685185185185185],[-0.2601851851851852],[1],[0],[0],[2.3378389000004063],['target'],75075,1,2022-09-21_15h19.57.535,Visual search sept 29'22,2022.2.3,60.04740142
75,0,75,0,5,162.5133715,162.5133715,0.024048,[-0.20277777777777778],[0.33240740740740743],[1],[0],[0],[1.4528761000001396],['target'],75075,1,2022-09-21_15h19.57.535,Visual search sept 29'22,2022.2.3,60.04740142
76,0,76,0,10,164.0219291,164.0219291,0.0455357,[0.30925925925925923],[0.12777777777777777],[1],[0],[0],[1.9639834000004157],['target'],75075,1,2022-09-21_15h19.57.535,Visual search sept 29'22,2022.2.3,60.04740142
77,0,77,0,5,166.0121312,166.0121312,0.023235,[0.462037037037037],[-0.019444444444444445],[1],[0],[0],[1.5699082000001],['target'],75075,1,2022-09-21_15h19.57.535,Visual search sept 29'22,2022.2.3,60.04740142
78,0,78,0,10,167.6331198,167.6331198,0.0406754,[-0.15],[0.4583333333333333],[1],[0],[0],[2.3702814999996917],['target'],75075,1,2022-09-21_15h19.57.535,Visual search sept 29'22,2022.2.3,60.04740142
79,0,79,0,10,170.0544124,170.0544124,0.0454437,[-0.36203703703703705],[-0.4685185185185185],[1],[0],[0],[2.913842000000386],['target'],75075,1,2022-09-21_15h19.57.535,Visual search sept 29'22,2022.2.3,60.04740142
80,0,80,0,10,173.0204167,173.0204167,0.0461117,[0.13055555555555556],[-0.2611111111111111],[1],[0],[0],[1.8799159000000145],['target'],75075,1,2022-09-21_15h19.57.535,Visual search sept 29'22,2022.2.3,60.04740142
81,0,81,0,10,174.9525153,174.9525153,0.0458495,[0.14537037037037037],[-0.42962962962962964],[1],[0],[0],[1.5472057000001769],['target'],75075,1,2022-09-21_15h19.57.535,Visual search sept 29'22,2022.2.3,60.04740142
82,0,82,0,5,176.5273359,176.5273359,0.0225398,[0.30833333333333335],[-0.22870370370370371],[1],[0],[0],[2.238038499999675],['target'],75075,1,2022-09-21_15h19.57.535,Visual search sept 29'22,2022.2.3,60.04740142
83,0,83,0,10,178.8161618,178.8161618,0.0436367,[0.19074074074074074],[-0.31296296296296294],[1],[0],[0],[1.633953399999882],['target'],75075,1,2022-09-21_15h19.57.535,Visual search sept 29'22,2022.2.3,60.04740142
84,0,84,0,5,180.4752637,180.4752637,0.0230873,[-0.04537037037037037],[-0.4287037037037037],[1],[0],[0],[1.837447400000201],['target'],75075,1,2022-09-21_15h19.57.535,Visual search sept 29'22,2022.2.3,60.04740142
85,0,85,0,5,182.3409539,182.3409539,0.0220853,[-0.39537037037037037],[0.22685185185185186],[1],[0],[0],[1.8203117000002749],['target'],75075,1,2022-09-21_15h19.57.535,Visual search sept 29'22,2022.2.3,60.04740142
86,0,86,0,5,184.1931118,184.1931118,0.021918,[-0.1925925925925926],[-0.44814814814814813],[1],[0],[0],[1.955250800000158],['target'],75075,1,2022-09-21_15h19.57.535,Visual search sept 29'22,2022.2.3,60.04740142
87,0,87,0,10,186.1976353,186.1976353,0.0406325,[-0.48333333333333334],[0.2712962962962963],[1],[0],[0],[2.0202611999998226],['target'],75075,1,2022-09-21_15h19.57.535,Visual search sept 29'22,2022.2.3,60.04740142
88,0,88,0,10,188.2704858,188.2704858,0.0483125,[0.4305555555555556],[-0.4148148148148148],[1],[0],[0],[1.9947235000004184],['target'],75075,1,2022-09-21_15h19.57.535,Visual search sept 29'22,2022.2.3,60.04740142
89,0,89,0,5,190.2892955,190.2892955,0.0215378,[-0.3],[-0.21666666666666667],[1],[0],[0],[1.9219726000001174],['target'],75075,1,2022-09-21_15h19.57.535,Visual search sept 29'22,2022.2.3,60.04740142
90,0,90,0,5,192.2422631,192.2422631,0.0245162,[-0.8611111111111112],[-0.32685185185185184],[1],[0],[0],[1.4344089000001077],[],75075,1,2022-09-21_15h19.57.535,Visual search sept 29'22,2022.2.3,60.04740142
91,0,91,0,10,193.7286078,193.7286078,0.0418105,[-0.06111111111111111],[0.43796296296296294],[1],[0],[0],[2.435929899999792],[],75075,1,2022-09-21_15h19.57.535,Visual search sept 29'22,2022.2.3,60.04740142
92,0,92,0,5,196.1901362,196.1901362,0.0221176,[0.36666666666666664],[-0.3574074074074074],[1],[0],[0],[1.8042608000000655],['target'],75075,1,2022-09-21_15h19.57.535,Visual search sept 29'22,2022.2.3,60.04740142
93,0,93,0,10,198.0499812,198.0499812,0.0469892,[0.46296296296296297],[0.019444444444444445],[1],[0],[0],[1.528472899999997],['target'],75075,1,2022-09-21_15h19.57.535,Visual search sept 29'22,2022.2.3,60.04740142
94,0,94,0,10,199.630448,199.630448,0.0429542,[-0.37777777777777777],[0.2361111111111111],[1],[0],[0],[2.232790499999737],[],75075,1,2022-09-21_15h19.57.535,Visual search sept 29'22,2022.2.3,60.04740142
95,0,95,0,5,201.892445,201.892445,0.0304067,[0.31296296296296294],[0.29814814814814816],[1],[0],[0],[1.7319929999998749],['target'],75075,1,2022-09-21_15h19.57.535,Visual search sept 29'22,2022.2.3,60.04740142
96,0,96,0,5,203.6592784,203.6592784,0.0245987,[0.19722222222222222],[-0.2851851851851852],[1],[0],[0],[1.7168535999999222],['target'],75075,1,2022-09-21_15h19.57.535,Visual search sept 29'22,2022.2.3,60.04740142
97,0,97,0,5,205.4027644,205.4027644,0.0231775,[0.040740740740740744],[0.07314814814814814],[1],[0],[0],[1.5708447000001797],['target'],75075,1,2022-09-21_15h19.57.535,Visual search sept 29'22,2022.2.3,60.04740142
98,0,98,0,5,207.0028226,207.0028226,0.022168,[0.041666666666666664],[-0.2722222222222222],[1],[0],[0],[1.6219231000000036],['target'],75075,1,2022-09-21_15h19.57.535,Visual search sept 29'22,2022.2.3,60.04740142
99,0,99,0,5,208.6547929,208.6547929,0.0234066,[-0.35555555555555557],[0.23333333333333334],[1],[0],[0],[1.8865680000003522],['target'],75075,1,2022-09-21_15h19.57.535,Visual search sept 29'22,2022.2.3,60.04740142
100,0,100,0,10,210.5945973,210.5945973,0.0456996,[0.23333333333333334],[-0.39444444444444443],[1],[0],[0],[2.8813906999998835],[],75075,1,2022-09-21_15h19.57.535,Visual search sept 29'22,2022.2.3,60.04740142
101,0,101,0,5,213.4989249,213.4989249,0.0219269,[0.2111111111111111],[-0.42962962962962964],[1],[0],[0],[2.3570426000001135],['target'],75075,1,2022-09-21_15h19.57.535,Visual search sept 29'22,2022.2.3,60.04740142
102,0,102,0,5,215.8874031,215.8874031,0.0263871,[0.23425925925925925],[-0.4546296296296296],[1],[0],[0],[1.4829712999999174],['target'],75075,1,2022-09-21_15h19.57.535,Visual search sept 29'22,2022.2.3,60.04740142
103,0,103,0,5,217.4086357,217.4086357,0.0265374,[0.1425925925925926],[-0.4601851851851852],[1],[0],[0],[1.3790165999998862],['target'],75075,1,2022-09-21_15h19.57.535,Visual search sept 29'22,2022.2.3,60.04740142
104,0,104,0,5,218.8171508,218.8171508,0.0243862,[-0.45],[-0.032407407407407406],[1],[0],[0],[1.9022538999997778],['target'],75075,1,2022-09-21_15h19.57.535,Visual search sept 29'22,2022.2.3,60.04740142
105,0,105,0,5,220.7487719,220.7487719,0.0217586,[-0.19537037037037036],[0.30925925925925923],[1],[0],[0],[1.7720020000001568],['target'],75075,1,2022-09-21_15h19.57.535,Visual search sept 29'22,2022.2.3,60.04740142
106,0,106,0,5,222.5529313,222.5529313,0.0276491,[-0.4546296296296296],[-0.2037037037037037],[1],[0],[0],[1.532966999999644],['target'],75075,1,2022-09-21_15h19.57.535,Visual search sept 29'22,2022.2.3,60.04740142
107,0,107,0,5,224.1159241,224.1159241,0.0234517,[0.4666666666666667],[0.23703703703703705],[1],[0],[0],[2.038104799999928],['target'],75075,1,2022-09-21_15h19.57.535,Visual search sept 29'22,2022.2.3,60.04740142
108,0,108,0,5,226.1837894,226.1837894,0.0257455,[-0.33796296296296297],[-0.15833333333333333],[1],[0],[0],[1.6180395000001226],['target'],75075,1,2022-09-21_15h19.57.535,Visual search sept 29'22,2022.2.3,60.04740142
109,0,109,0,10,227.8598786,227.8598786,0.0482497,[0.3101851851851852],[-0.4787037037037037],[1],[0],[0],[2.9278708000001643],['target'],75075,1,2022-09-21_15h19.57.535,Visual search sept 29'22,2022.2.3,60.04740142
110,0,110,0,10,230.8429167,230.8429167,0.0468385,[0.42592592592592593],[0.16944444444444445],[1],[0],[0],[2.0463535999997475],['target'],75075,1,2022-09-21_15h19.57.535,Visual search sept 29'22,2022.2.3,60.04740142
111,0,111,0,10,232.9410653,232.9410653,0.0458781,[-0.4351851851851852],[-0.15092592592592594],[1],[0],[0],[1.7476431000000048],['target'],75075,1,2022-09-21_15h19.57.535,Visual search sept 29'22,2022.2.3,60.04740142
112,0,112,0,5,234.7176116,234.7176116,0.0271027,[0.39537037037037037],[-0.032407407407407406],[1],[0],[0],[1.4490938999997525],['target'],75075,1,2022-09-21_15h19.57.535,Visual search sept 29'22,2022.2.3,60.04740142
113,0,113,0,5,236.1948551,236.1948551,0.0213492,[0.12037037037037036],[-0.4046296296296296],[1],[0],[0],[1.7557827999999063],['target'],75075,1,2022-09-21_15h19.57.535,Visual search sept 29'22,2022.2.3,60.04740142
114,0,114,0,10,238.0080049,238.0080049,0.0435259,[-0.17962962962962964],[0.3990740740740741],[1],[0],[0],[1.5851355000004332],['target'],75075,1,2022-09-21_15h19.57.535,Visual search sept 29'22,2022.2.3,60.04740142
115,0,115,0,10,239.6397576,239.6397576,0.0452848,[0.46944444444444444],[0.15648148148148147],[1],[0],[0],[2.2478965000000244],[],75075,1,2022-09-21_15h19.57.535,Visual search sept 29'22,2022.2.3,60.04740142
116,0,116,0,10,241.9418811,241.9418811,0.046344,[-0.17407407407407408],[-0.03796296296296296],[1],[0],[0],[1.4479835000001913],['target'],75075,1,2022-09-21_15h19.57.535,Visual search sept 29'22,2022.2.3,60.04740142
117,0,117,0,10,243.4368677,243.4368677,0.0426914,[-0.31203703703703706],[0.32037037037037036],[1],[0],[0],[2.1992731999998796],['target'],75075,1,2022-09-21_15h19.57.535,Visual search sept 29'22,2022.2.3,60.04740142
118,0,118,0,10,245.6890754,245.6890754,0.048391,[0.018518518518518517],[0.032407407407407406],[1],[0],[0],[2.010706200000186],['target'],75075,1,2022-09-21_15h19.57.535,Visual search sept 29'22,2022.2.3,60.04740142
119,0,119,0,10,247.7584569,247.7584569,0.0477114,[-0.11851851851851852],[-0.29814814814814816],[1],[0],[0],[1.5432661999998345],['target'],75075,1,2022-09-21_15h19.57.535,Visual search sept 29'22,2022.2.3,60.04740142
120,0,120,0,5,249.3281979,249.3281979,0.0217212,[-0.28888888888888886],[-0.1712962962962963],[1],[0],[0],[1.354213499999787],['target'],75075,1,2022-09-21_15h19.57.535,Visual search sept 29'22,2022.2.3,60.04740142
121,0,121,0,10,250.7359051,250.7359051,0.0454527,[0.03981481481481482],[-0.05555555555555555],[1],[0],[0],[1.8308521999997538],['target'],75075,1,2022-09-21_15h19.57.535,Visual search sept 29'22,2022.2.3,60.04740142
122,0,122,0,10,252.6152505,252.6152505,0.0438213,[-0.175],[-0.3296296296296296],[1],[0],[0],[1.882405700000163],['target'],75075,1,2022-09-21_15h19.57.535,Visual search sept 29'22,2022.2.3,60.04740142
123,0,123,0,5,254.5251399,254.5251399,0.020604,[-0.412962962962963],[0.49722222222222223],[1],[0],[0],[2.004928800000016],[],75075,1,2022-09-21_15h19.57.535,Visual search sept 29'22,2022.2.3,60.04740142
124,0,124,0,10,256.5795969,256.5795969,0.0428852,[-0.412962962962963],[0.49722222222222223],[1],[0],[0],[0.20124689999965995],[],75075,1,2022-09-21_15h19.57.535,Visual search sept 29'22,2022.2.3,60.04740142
125,0,125,0,10,256.8356374,256.8356374,0.0423109,[-0.16203703703703703],[-0.4703703703703704],[1],[0],[0],[2.3837640000001556],['target'],75075,1,2022-09-21_15h19.57.535,Visual search sept 29'22,2022.2.3,60.04740142
126,0,126,0,10,259.2643252,259.2643252,0.0430655,[0.000925925925925926],[0.4388888888888889],[1],[0],[0],[1.2684538000003158],[],75075,1,2022-09-21_15h19.57.535,Visual search sept 29'22,2022.2.3,60.04740142
127,0,127,0,5,260.5573673,260.5573673,0.0226398,[-0.4111111111111111],[-0.2574074074074074],[1],[0],[0],[1.9542136000000028],['target'],75075,1,2022-09-21_15h19.57.535,Visual search sept 29'22,2022.2.3,60.04740142
128,0,128,0,5,262.540362,262.540362,0.0221532,[-0.40370370370370373],[-0.4824074074074074],[1],[0],[0],[2.454504799999995],['target'],75075,1,2022-09-21_15h19.57.535,Visual search sept 29'22,2022.2.3,60.04740142
129,0,129,0,10,265.0475785,265.0475785,0.044323,[-0.30833333333333335],[0.33425925925925926],[1],[0],[0],[1.5151053999998112],['target'],75075,1,2022-09-21_15h19.57.535,Visual search sept 29'22,2022.2.3,60.04740142
130,0,130,0,10,266.6165613,266.6165613,0.0471566,[-0.2],[0.29814814814814816],[1],[0],[0],[1.2616180999998505],['target'],75075,1,2022-09-21_15h19.57.535,Visual search sept 29'22,2022.2.3,60.04740142
131,0,131,0,5,267.9056696,267.9056696,0.0234297,[0.4101851851851852],[-0.004629629629629629],[1],[0],[0],[1.6193023000000721],['target'],75075,1,2022-09-21_15h19.57.535,Visual search sept 29'22,2022.2.3,60.04740142
132,0,132,0,5,269.554692,269.554692,0.0214011,[0.024074074074074074],[-0.025],[1],[0],[0],[1.7716120000000046],['target'],75075,1,2022-09-21_15h19.57.535,Visual search sept 29'22,2022.2.3,60.04740142
133,0,133,0,5,271.3559193,271.3559193,0.0219878,[0.2898148148148148],[-0.11574074074074074],[1],[0],[0],[1.7868622000000869],['target'],75075,1,2022-09-21_15h19.57.535,Visual search sept 29'22,2022.2.3,60.04740142
134,0,134,0,5,273.1731365,273.1731365,0.026529,[0.44722222222222224],[-0.05925925925925926],[1],[0],[0],[1.4336333000001105],['target'],75075,1,2022-09-21_15h19.57.535,Visual search sept 29'22,2022.2.3,60.04740142
135,0,135,0,10,274.6632429,274.6632429,0.0432313,[0.13703703703703704],[0.16296296296296298],[1],[0],[0],[1.884258100000352],['target'],75075,1,2022-09-21_15h19.57.535,Visual search sept 29'22,2022.2.3,60.04740142
136,0,136,0,5,276.5706707,276.5706707,0.024831,[-0.1648148148148148],[-0.23796296296296296],[1],[0],[0],[1.9178812000000107],['target'],75075,1,2022-09-21_15h19.57.535,Visual search sept 29'22,2022.2.3,60.04740142
137,0,137,0,10,278.5443944,278.5443944,0.0465252,[0.35648148148148145],[0.462037037037037],[1],[0],[0],[2.663942700000007],['target'],75075,1,2022-09-21_15h19.57.535,Visual search sept 29'22,2022.2.3,60.04740142
138,0,138,0,5,281.233047,281.233047,0.0226093,[0.1787037037037037],[-0.31666666666666665],[1],[0],[0],[1.8547945000000254],[],75075,1,2022-09-21_15h19.57.535,Visual search sept 29'22,2022.2.3,60.04740142
139,0,139,0,5,283.1136569,283.1136569,0.0212454,[-0.25277777777777777],[-0.4666666666666667],[1],[0],[0],[1.7899059999999736],['target'],75075,1,2022-09-21_15h19.57.535,Visual search sept 29'22,2022.2.3,60.04740142
140,0,140,0,10,284.9615066,284.9615066,0.0462707,[-0.3314814814814815],[-0.42962962962962964],[1],[0],[0],[1.8627830999998878],['target'],75075,1,2022-09-21_15h19.57.535,Visual search sept 29'22,2022.2.3,60.04740142
141,0,141,0,5,286.8522838,286.8522838,0.0237785,[-0.032407407407407406],[0.1574074074074074],[1],[0],[0],[1.4536120000002484],['target'],75075,1,2022-09-21_15h19.57.535,Visual search sept 29'22,2022.2.3,60.04740142
142,0,142,0,10,288.3545038,288.3545038,0.0428485,[-0.4675925925925926],[0.44074074074074077],[1],[0],[0],[1.8002809999998135],['target'],75075,1,2022-09-21_15h19.57.535,Visual search sept 29'22,2022.2.3,60.04740142
143,0,143,0,10,290.2083409,290.2083409,0.0427625,[0.28425925925925927],[-0.21296296296296297],[1],[0],[0],[1.8022240000000238],[],75075,1,2022-09-21_15h19.57.535,Visual search sept 29'22,2022.2.3,60.04740142
144,0,144,0,5,292.0351209,292.0351209,0.0230304,[-0.11666666666666667],[-0.44074074074074077],[1],[0],[0],[1.6853803000003609],['target'],75075,1,2022-09-21_15h19.57.535,Visual search sept 29'22,2022.2.3,60.04740142
145,0,145,0,5,293.7475065,293.7475065,0.0214701,[-0.4388888888888889],[0.3611111111111111],[1],[0],[0],[1.8562559000001784],['target'],75075,1,2022-09-21_15h19.57.535,Visual search sept 29'22,2022.2.3,60.04740142
146,0,146,0,10,295.656127,295.656127,0.0447185,[0.3962962962962963],[0.12314814814814815],[1],[0],[0],[1.4815880000001016],['target'],75075,1,2022-09-21_15h19.57.535,Visual search sept 29'22,2022.2.3,60.04740142
147,0,147,0,5,297.1669224,297.1669224,0.0212398,[0.075],[0.2935185185185185],[1],[0],[0],[1.454887299999882],['target'],75075,1,2022-09-21_15h19.57.535,Visual search sept 29'22,2022.2.3,60.04740142
148,0,148,0,10,298.6714291,298.6714291,0.0414879,[0.4027777777777778],[0.30462962962962964],[1],[0],[0],[3.3187150000003385],['target'],75075,1,2022-09-21_15h19.57.535,Visual search sept 29'22,2022.2.3,60.04740142
149,0,149,0,10,302.0366519,302.0366519,0.0418083,[0.2388888888888889],[0.5],[1],[0],[0],[1.519040700000005],['target'],75075,1,2022-09-21_15h19.57.535,Visual search sept 29'22,2022.2.3,60.04740142
150,0,150,0,5,303.5831015,303.5831015,0.0255883,[0.05462962962962963],[-0.04259259259259259],[1],[0],[0],[1.684668999999758],['target'],75075,1,2022-09-21_15h19.57.535,Visual search sept 29'22,2022.2.3,60.04740142
151,0,151,0,10,305.3230829,305.3230829,0.0458978,[0.3398148148148148],[0.17037037037037037],[1],[0],[0],[1.8789316000002145],['target'],75075,1,2022-09-21_15h19.57.535,Visual search sept 29'22,2022.2.3,60.04740142
152,0,152,0,10,307.2344374,307.2344374,0.0271431,[0.05740740740740741],[0.2037037037037037],[1],[0],[0],[1.9501328999999714],['target'],75075,1,2022-09-21_15h19.57.535,Visual search sept 29'22,2022.2.3,60.04740142
153,0,153,0,5,309.2119936,309.2119936,0.0232091,[0.09444444444444444],[0.2101851851851852],[1],[0],[0],[1.3049638000002233],[],75075,1,2022-09-21_15h19.57.535,Visual search sept 29'22,2022.2.3,60.04740142
154,0,154,0,10,310.5679573,310.5679573,0.0434907,[0.1962962962962963],[0.07314814814814814],[1],[0],[0],[1.250065000000177],[],75075,1,2022-09-21_15h19.57.535,Visual search sept 29'22,2022.2.3,60.04740142
155,0,155,0,10,311.867367,311.867367,0.0424271,[-0.33240740740740743],[-0.2537037037037037],[1],[0],[0],[1.9021566999999777],['target'],75075,1,2022-09-21_15h19.57.535,Visual search sept 29'22,2022.2.3,60.04740142
156,0,156,0,10,313.8193445,313.8193445,0.048328,[-0.07592592592592592],[-0.24814814814814815],[1],[0],[0],[1.5442706999997426],['target'],75075,1,2022-09-21_15h19.57.535,Visual search sept 29'22,2022.2.3,60.04740142
157,0,157,0,5,315.3984957,315.3984957,0.0236801,[0.225],[-0.34814814814814815],[1],[0],[0],[1.7520269999999982],['target'],75075,1,2022-09-21_15h19.57.535,Visual search sept 29'22,2022.2.3,60.04740142
158,0,158,0,5,317.1765851,317.1765851,0.0225637,[-0.13055555555555556],[0.1787037037037037],[1],[0],[0],[1.739611199999672],['target'],75075,1,2022-09-21_15h19.57.535,Visual search sept 29'22,2022.2.3,60.04740142
159,0,159,0,5,318.9439013,318.9439013,0.0246555,[-0.032407407407407406],[-0.14722222222222223],[1],[0],[0],[1.3843320000000858],['target'],75075,1,2022-09-21_15h19.57.535,Visual search sept 29'22,2022.2.3,60.04740142
160,0,160,0,10,320.38133,320.38133,0.0430949,[0.4564814814814815],[-0.2111111111111111],[1],[0],[0],[1.8342827000001307],['target'],75075,1,2022-09-21_15h19.57.535,Visual search sept 29'22,2022.2.3,60.04740142
161,0,161,0,10,322.2641832,322.2641832,0.0400544,[0.3861111111111111],[0.43333333333333335],[1],[0],[0],[1.6868547999997645],['target'],75075,1,2022-09-21_15h19.57.535,Visual search sept 29'22,2022.2.3,60.04740142
162,0,162,0,5,323.9728152,323.9728152,0.021757,[0.17777777777777778],[0.4601851851851852],[1],[0],[0],[1.3067356000001382],[],75075,1,2022-09-21_15h19.57.535,Visual search sept 29'22,2022.2.3,60.04740142
163,0,163,0,10,325.3341766,325.3341766,0.0447277,[0.24074074074074073],[0.3074074074074074],[1],[0],[0],[1.2328902000003836],['target'],75075,1,2022-09-21_15h19.57.535,Visual search sept 29'22,2022.2.3,60.04740142
164,0,164,0,10,326.6159807,326.6159807,0.0469063,[-0.12037037037037036],[0.008333333333333333],[1],[0],[0],[1.8136512999999468],['target'],75075,1,2022-09-21_15h19.57.535,Visual search sept 29'22,2022.2.3,60.04740142
165,0,165,0,5,328.459342,328.459342,0.0227329,[-0.22407407407407406],[-0.4666666666666667],[1],[0],[0],[2.2531152000001384],['target'],75075,1,2022-09-21_15h19.57.535,Visual search sept 29'22,2022.2.3,60.04740142
166,0,166,0,10,330.765442,330.765442,0.0431904,[-0.30185185185185187],[-0.1935185185185185],[1],[0],[0],[1.9345882000002348],[],75075,1,2022-09-21_15h19.57.535,Visual search sept 29'22,2022.2.3,60.04740142
167,0,167,0,5,332.7275736,332.7275736,0.0250889,[0.26851851851851855],[-0.21388888888888888],[1],[0],[0],[1.8153496999998424],['target'],75075,1,2022-09-21_15h19.57.535,Visual search sept 29'22,2022.2.3,60.04740142
168,0,168,0,5,334.5722326,334.5722326,0.0233874,[0.3574074074074074],[0.39351851851851855],[1],[0],[0],[1.6036300000000665],['target'],75075,1,2022-09-21_15h19.57.535,Visual search sept 29'22,2022.2.3,60.04740142
169,0,169,0,10,336.2322158,336.2322158,0.0449137,[-0.27870370370370373],[0.037037037037037035],[1],[0],[0],[1.4994599000001472],['target'],75075,1,2022-09-21_15h19.57.535,Visual search sept 29'22,2022.2.3,60.04740142
170,0,170,0,5,337.7565592,337.7565592,0.022335,[-0.4027777777777778],[0.2759259259259259],[1],[0],[0],[1.5022972999995545],['target'],75075,1,2022-09-21_15h19.57.535,Visual search sept 29'22,2022.2.3,60.04740142
171,0,171,0,5,339.2832932,339.2832932,0.0208361,[-0.03981481481481482],[0.06574074074074074],[1],[0],[0],[1.2739431999998487],[],75075,1,2022-09-21_15h19.57.535,Visual search sept 29'22,2022.2.3,60.04740142
172,0,172,0,5,340.58992,340.58992,0.0219006,[-0.2638888888888889],[-0.21203703703703702],[1],[0],[0],[1.6042403000001286],['target'],75075,1,2022-09-21_15h19.57.535,Visual search sept 29'22,2022.2.3,60.04740142
173,0,173,0,10,342.247571,342.247571,0.0457602,[0.17962962962962964],[-0.13055555555555556],[1],[0],[0],[1.4788365000003978],['target'],75075,1,2022-09-21_15h19.57.535,Visual search sept 29'22,2022.2.3,60.04740142
174,0,174,0,5,343.7561828,343.7561828,0.022275,[0.08796296296296297],[-0.2490740740740741],[1],[0],[0],[1.2540130000002137],[],75075,1,2022-09-21_15h19.57.535,Visual search sept 29'22,2022.2.3,60.04740142
175,0,175,0,5,345.0379953,345.0379953,0.0255353,[0.34814814814814815],[0.12962962962962962],[1],[0],[0],[1.9516114000002744],['target'],75075,1,2022-09-21_15h19.57.535,Visual search sept 29'22,2022.2.3,60.04740142
176,0,176,0,10,347.0459099,347.0459099,0.0461211,[0.0],[-0.37407407407407406],[1],[0],[0],[1.7627071000001706],['target'],75075,1,2022-09-21_15h19.57.535,Visual search sept 29'22,2022.2.3,60.04740142
177,0,177,0,10,348.8604452,348.8604452,0.0411872,[0.020370370370370372],[0.20555555555555555],[1],[0],[0],[1.7348515000003317],['target'],75075,1,2022-09-21_15h19.57.535,Visual search sept 29'22,2022.2.3,60.04740142
178,0,178,0,10,350.6516421,350.6516421,0.0484311,[0.42962962962962964],[-0.07037037037037037],[1],[0],[0],[1.6440850000003593],['target'],75075,1,2022-09-21_15h19.57.535,Visual search sept 29'22,2022.2.3,60.04740142
179,0,179,0,5,352.3195855,352.3195855,0.0211256,[0.49537037037037035],[0.40185185185185185],[1],[0],[0],[2.586826900000233],['target'],75075,1,2022-09-21_15h19.57.535,Visual search sept 29'22,2022.2.3,60.04740142
180,0,180,0,5,354.9491093,354.9491093,0.0342878,[-0.23148148148148148],[-0.33055555555555555],[1],[0],[0],[2.339732500000082],['target'],75075,1,2022-09-21_15h19.57.535,Visual search sept 29'22,2022.2.3,60.04740142
181,0,181,0,5,357.3151028,357.3151028,0.0216195,[0.06296296296296296],[0.13148148148148148],[1],[0],[0],[1.2722469000000274],['target'],75075,1,2022-09-21_15h19.57.535,Visual search sept 29'22,2022.2.3,60.04740142
182,0,182,0,10,358.6402741,358.6402741,0.0416398,[0.06481481481481481],[-0.08333333333333333],[1],[0],[0],[1.8183875999998236],['target'],75075,1,2022-09-21_15h19.57.535,Visual search sept 29'22,2022.2.3,60.04740142
183,0,183,0,5,360.4830276,360.4830276,0.0239935,[-0.2175925925925926],[0.2712962962962963],[1],[0],[0],[1.9865563999996994],['target'],75075,1,2022-09-21_15h19.57.535,Visual search sept 29'22,2022.2.3,60.04740142
184,0,184,0,5,362.5056771,362.5056771,0.0242575,[0.42685185185185187],[-0.004629629629629629],[1],[0],[0],[1.4515760000003866],['target'],75075,1,2022-09-21_15h19.57.535,Visual search sept 29'22,2022.2.3,60.04740142
185,0,185,0,5,363.9874576,363.9874576,0.0291852,[-0.2740740740740741],[-0.38796296296296295],[1],[0],[0],[2.430288399999881],['target'],75075,1,2022-09-21_15h19.57.535,Visual search sept 29'22,2022.2.3,60.04740142
186,0,186,0,5,366.4462433,366.4462433,0.0221525,[-0.39814814814814814],[0.14351851851851852],[1],[0],[0],[2.0546478999999636],['target'],75075,1,2022-09-21_15h19.57.535,Visual search sept 29'22,2022.2.3,60.04740142
187,0,187,0,10,368.5549572,368.5549572,0.0441084,[-0.11851851851851852],[0.3425925925925926],[1],[0],[0],[1.4145238000000973],['target'],75075,1,2022-09-21_15h19.57.535,Visual search sept 29'22,2022.2.3,60.04740142
188,0,188,0,5,369.9911707,369.9911707,0.0194958,[0.287962962962963],[-0.4462962962962963],[1],[0],[0],[2.2448764000000665],['target'],75075,1,2022-09-21_15h19.57.535,Visual search sept 29'22,2022.2.3,60.04740142
189,0,189,0,10,372.301356,372.301356,0.0531451,[-0.11851851851851852],[0.17407407407407408],[1],[0],[0],[1.973676400000386],['target'],75075,1,2022-09-21_15h19.57.535,Visual search sept 29'22,2022.2.3,60.04740142
190,0,190,0,5,374.298421,374.298421,0.0218082,[0.2796296296296296],[0.04259259259259259],[1],[0],[0],[2.036736000000019],['target'],75075,1,2022-09-21_15h19.57.535,Visual search sept 29'22,2022.2.3,60.04740142
191,0,191,0,10,376.3899656,376.3899656,0.0476968,[0.04351851851851852],[-0.13055555555555556],[1],[0],[0],[1.7446106000002146],['target'],75075,1,2022-09-21_15h19.57.535,Visual search sept 29'22,2022.2.3,60.04740142
192,0,192,0,5,378.1643013,378.1643013,0.0227972,[-0.3490740740740741],[-0.09166666666666666],[1],[0],[0],[1.4528606000003492],['target'],75075,1,2022-09-21_15h19.57.535,Visual search sept 29'22,2022.2.3,60.04740142
193,0,193,0,10,379.66791,379.66791,0.0400641,[0.4185185185185185],[-0.010185185185185186],[1],[0],[0],[2.2725844999999936],['target'],75075,1,2022-09-21_15h19.57.535,Visual search sept 29'22,2022.2.3,60.04740142
194,0,194,0,10,381.9859717,381.9859717,0.0450097,[0.19074074074074074],[-0.15462962962962962],[1],[0],[0],[1.3781026999999995],['target'],75075,1,2022-09-21_15h19.57.535,Visual search sept 29'22,2022.2.3,60.04740142
195,0,195,0,5,383.3979503,383.3979503,0.0222771,[0.15925925925925927],[-0.14814814814814814],[1],[0],[0],[1.1844830999998521],['target'],75075,1,2022-09-21_15h19.57.535,Visual search sept 29'22,2022.2.3,60.04740142
196,0,196,0,10,384.6332592,384.6332592,0.0402215,[0.08425925925925926],[-0.03518518518518519],[1],[0],[0],[1.4542706000002],['target'],75075,1,2022-09-21_15h19.57.535,Visual search sept 29'22,2022.2.3,60.04740142
197,0,197,0,10,386.1337693,386.1337693,0.0433211,[-0.1287037037037037],[0.46296296296296297],[1],[0],[0],[2.017651300000125],['target'],75075,1,2022-09-21_15h19.57.535,Visual search sept 29'22,2022.2.3,60.04740142
198,0,198,0,5,388.1740079,388.1740079,0.0223721,[-0.3453703703703704],[-0.38425925925925924],[1],[0],[0],[2.5218469999999797],['target'],75075,1,2022-09-21_15h19.57.535,Visual search sept 29'22,2022.2.3,60.04740142
199,0,199,0,5,390.7260396,390.7260396,0.020628,[-0.07407407407407407],[0.007407407407407408],[1],[0],[0],[1.7713125999998738],['target'],75075,1,2022-09-21_15h19.57.535,Visual search sept 29'22,2022.2.3,60.04740142
